time_offset,timestamp,ax,ay,az,wx,wy,wz,mx,my,mz
0.0,1678385658.710552,0.247802734375,0.028076171875,-1.235107421875,0.89263916015625,-6.11114501953125,1.33514404296875,11.71875,-16.69921875,-34.5703125
0.19845819473266602,1678385658.9090102,0.12890625,0.0234375,-1.000244140625,-0.5950927734375,1.89971923828125,1.33514404296875,10.986328125,-17.138671875,-34.130859375
0.39845871925354004,1678385659.1090107,0.133544921875,0.01953125,-0.9853515625,-0.640869140625,2.18963623046875,1.312255859375,11.42578125,-18.45703125,-34.86328125
0.5984592437744141,1678385659.3090112,0.109375,0.007568359375,-0.960693359375,-0.8087158203125,2.18963623046875,1.2969970703125,11.572265625,-16.845703125,-33.544921875
0.7984607219696045,1678385659.5090127,0.136474609375,0.021240234375,-0.966796875,-0.79345703125,1.617431640625,1.31988525390625,10.546875,-15.8203125,-33.984375
0.9999535083770752,1678385659.7105055,0.139404296875,0.0126953125,-0.962890625,-0.7171630859375,1.5411376953125,1.02996826171875,9.814453125,-16.259765625,-32.958984375
1.1999521255493164,1678385659.910504,0.14111328125,0.022216796875,-0.984619140625,-0.48065185546875,1.861572265625,1.13677978515625,10.83984375,-16.69921875,-35.15625
1.3999536037445068,1678385660.1105056,0.136474609375,0.0283203125,-0.978759765625,-0.701904296875,2.166748046875,1.190185546875,10.546875,-17.28515625,-34.86328125
1.5999536514282227,1678385660.3105056,0.130615234375,0.013916015625,-0.985107421875,-0.5035400390625,3.875732421875,1.3427734375,11.71875,-16.69921875,-34.27734375
1.7999541759490967,1678385660.5105062,0.134765625,0.02587890625,-0.970947265625,-0.30517578125,1.54876708984375,1.1138916015625,12.451171875,-17.138671875,-34.716796875
1.9999957084655762,1678385660.7105477,0.136962890625,0.00146484375,-0.968017578125,-0.762939453125,1.71661376953125,1.03759765625,10.83984375,-17.87109375,-34.27734375
2.1999948024749756,1678385660.9105468,0.133056640625,0.016357421875,-0.98388671875,-0.67138671875,2.00653076171875,1.0528564453125,10.83984375,-17.28515625,-34.5703125
2.399996519088745,1678385661.1105485,0.14404296875,0.02734375,-0.999755859375,-0.5035400390625,1.59454345703125,1.45721435546875,11.42578125,-16.9921875,-35.7421875
2.5999975204467773,1678385661.3105495,0.122802734375,0.017333984375,-0.98876953125,-0.5645751953125,1.93023681640625,1.12152099609375,10.83984375,-18.1640625,-33.69140625
2.7999985218048096,1678385661.5105505,0.120361328125,0.019287109375,-0.995361328125,-0.22125244140625,2.35748291015625,1.13677978515625,10.25390625,-16.40625,-34.27734375
2.999999523162842,1678385661.7105515,0.128173828125,0.02685546875,-0.95849609375,-0.54931640625,1.9989013671875,1.2054443359375,10.25390625,-17.87109375,-34.86328125
3.200000762939453,1678385661.9105527,0.140869140625,0.030517578125,-0.966064453125,-0.8392333984375,2.22015380859375,1.31988525390625,11.71875,-16.69921875,-34.5703125
3.400001287460327,1678385662.1105533,0.146728515625,0.024169921875,-0.965087890625,-0.6866455078125,1.5106201171875,1.2054443359375,10.546875,-17.28515625,-34.5703125
3.6000027656555176,1678385662.3105547,0.16259765625,0.018310546875,-0.942138671875,-0.57220458984375,0.1373291015625,1.21307373046875,10.546875,-18.1640625,-33.984375
3.800004243850708,1678385662.5105562,0.1513671875,0.009765625,-0.96435546875,-0.70953369140625,0.54931640625,1.312255859375,9.9609375,-16.69921875,-34.27734375
4.000004768371582,1678385662.7105567,0.1455078125,0.0283203125,-0.9775390625,-0.72479248046875,-0.1373291015625,1.30462646484375,10.546875,-17.28515625,-34.5703125
4.200006008148193,1678385662.910558,0.14208984375,0.015625,-0.970703125,-0.58746337890625,-1.83868408203125,1.02996826171875,11.1328125,-18.1640625,-33.3984375
4.400007009506226,1678385663.110559,0.1337890625,0.016357421875,-1.005126953125,-0.61798095703125,0.74005126953125,1.31988525390625,10.693359375,-16.845703125,-34.423828125
4.6000075340271,1678385663.3105595,0.129638671875,0.010986328125,-1.010986328125,-0.6103515625,1.53350830078125,1.2054443359375,10.107421875,-17.724609375,-34.130859375
4.80000901222229,1678385663.510561,0.1396484375,0.02294921875,-0.989501953125,-0.57220458984375,1.739501953125,1.13677978515625,9.521484375,-17.431640625,-36.181640625
5.000010013580322,1678385663.710562,0.137939453125,0.045166015625,-0.998291015625,-0.701904296875,1.8463134765625,1.35040283203125,10.546875,-17.578125,-34.86328125
5.200010776519775,1678385663.9105628,0.127685546875,0.01318359375,-1.0107421875,-0.67901611328125,1.9073486328125,1.0528564453125,10.693359375,-17.138671875,-34.130859375
5.40001106262207,1678385664.110563,0.15087890625,0.029541015625,-0.988037109375,-0.8697509765625,1.35040283203125,1.6021728515625,10.25390625,-18.1640625,-35.7421875
5.600011825561523,1678385664.3105638,0.149169921875,0.03515625,-0.96923828125,-0.72479248046875,1.48773193359375,1.0986328125,12.01171875,-16.69921875,-34.86328125
5.800013303756714,1678385664.5105653,0.143310546875,0.027099609375,-0.95654296875,-0.37384033203125,0.72479248046875,1.12152099609375,10.83984375,-16.69921875,-33.10546875
6.000014305114746,1678385664.7105663,0.14013671875,0.00146484375,-0.98291015625,-0.7171630859375,0.77056884765625,1.41143798828125,10.693359375,-18.310546875,-34.130859375
6.20001482963562,1678385664.9105668,0.146240234375,0.01806640625,-0.962890625,-0.81634521484375,0.6256103515625,1.2664794921875,11.865234375,-17.724609375,-34.130859375
6.400014877319336,1678385665.1105669,0.150634765625,0.021728515625,-0.946533203125,-0.38909912109375,1.220703125,1.2664794921875,10.546875,-18.45703125,-34.86328125
6.600015640258789,1678385665.3105676,0.12744140625,0.022705078125,-0.97802734375,-0.48828125,1.35040283203125,1.28936767578125,10.693359375,-16.845703125,-35.302734375
6.800016403198242,1678385665.5105684,0.149169921875,0.013671875,-0.967529296875,-0.64849853515625,0.74005126953125,1.0528564453125,11.71875,-18.1640625,-34.5703125
7.000017404556274,1678385665.7105694,0.142333984375,0.0185546875,-0.97021484375,-0.70953369140625,1.5716552734375,1.02996826171875,12.890625,-16.9921875,-34.5703125
7.20001745223999,1678385665.9105694,0.154296875,0.01611328125,-0.96630859375,-0.25177001953125,0.77056884765625,1.24359130859375,11.279296875,-15.380859375,-34.423828125
7.400018215179443,1678385666.1105702,0.13525390625,0.00537109375,-0.992431640625,-1.01470947265625,1.21307373046875,1.25885009765625,9.375,-17.28515625,-35.15625
7.6000189781188965,1678385666.310571,0.1484375,0.02490234375,-0.96337890625,-0.72479248046875,1.44195556640625,1.41143798828125,10.986328125,-16.845703125,-34.423828125
7.80001974105835,1678385666.5105717,0.138671875,0.0185546875,-0.97509765625,-0.5645751953125,0.75531005859375,1.495361328125,11.279296875,-15.380859375,-37.060546875
8.000020742416382,1678385666.7105727,0.119384765625,0.01220703125,-0.996826171875,-0.4425048828125,1.678466796875,1.24359130859375,10.25390625,-18.1640625,-35.7421875
8.200021266937256,1678385666.9105732,0.133544921875,0.024658203125,-0.98291015625,-0.4730224609375,1.1444091796875,1.36566162109375,10.83984375,-17.28515625,-35.15625
8.400022029876709,1678385667.110574,0.15966796875,0.029052734375,-0.970947265625,-0.885009765625,0.9613037109375,1.0986328125,12.3046875,-15.52734375,-35.44921875
8.600022792816162,1678385667.3105748,0.1376953125,0.046630859375,-0.984130859375,-0.54168701171875,1.0223388671875,1.1138916015625,9.9609375,-17.28515625,-34.27734375
8.800024509429932,1678385667.5105765,0.135498046875,0.014404296875,-0.952880859375,-0.9918212890625,1.190185546875,1.373291015625,10.83984375,-16.9921875,-34.5703125
9.000025510787964,1678385667.7105775,0.130859375,0.022705078125,-0.984130859375,-0.64849853515625,1.2054443359375,1.4190673828125,11.42578125,-15.234375,-34.5703125
9.200026035308838,1678385667.910578,0.148681640625,0.031982421875,-0.9755859375,-0.63323974609375,0.90789794921875,1.16729736328125,10.986328125,-16.845703125,-34.716796875
9.400026321411133,1678385668.1105783,0.1494140625,0.028564453125,-0.968017578125,-0.6866455078125,1.15203857421875,1.19781494140625,11.279296875,-15.966796875,-33.544921875
9.600028038024902,1678385668.31058,0.140625,0.008544921875,-0.978515625,-0.91552734375,0.762939453125,1.36566162109375,9.66796875,-17.578125,-34.5703125
9.800028324127197,1678385668.5105803,0.139892578125,0.005859375,-0.9716796875,-0.43487548828125,1.02996826171875,1.28936767578125,11.1328125,-18.1640625,-34.5703125
10.000029563903809,1678385668.7105815,0.1396484375,0.017333984375,-0.979248046875,-0.5645751953125,1.1444091796875,1.31988525390625,11.1328125,-17.28515625,-34.27734375
10.200030088424683,1678385668.910582,0.150390625,0.041015625,-0.970703125,-0.54168701171875,1.1138916015625,1.24359130859375,10.546875,-16.40625,-35.44921875
10.400030851364136,1678385669.1105828,0.156005859375,0.02978515625,-0.954345703125,-0.57220458984375,0.93841552734375,1.36566162109375,10.83984375,-16.40625,-35.44921875
10.600032329559326,1678385669.3105843,0.134521484375,0.013916015625,-0.97900390625,-0.9002685546875,1.12152099609375,1.24359130859375,10.25390625,-16.9921875,-35.7421875
10.800033807754517,1678385669.5105858,0.143310546875,0.021728515625,-0.96728515625,-0.579833984375,1.190185546875,1.48773193359375,11.279296875,-16.259765625,-34.130859375
11.000035524368286,1678385669.7105875,0.142333984375,0.036865234375,-0.97216796875,-0.35858154296875,0.8544921875,1.3427734375,9.9609375,-17.87109375,-35.15625
11.200036525726318,1678385669.9105885,0.142578125,0.01025390625,-0.982177734375,-0.30517578125,0.6103515625,1.251220703125,10.83984375,-16.69921875,-34.86328125
11.400036811828613,1678385670.1105888,0.120361328125,0.013671875,-0.979248046875,-0.54931640625,1.46484375,1.01470947265625,11.71875,-16.9921875,-34.5703125
11.600036859512329,1678385670.3105888,0.154052734375,0.030517578125,-0.961669921875,-0.74005126953125,1.03759765625,1.0223388671875,11.572265625,-15.673828125,-35.302734375
11.800036907196045,1678385670.510589,0.149658203125,0.029052734375,-0.987060546875,-0.67901611328125,1.09100341796875,1.251220703125,11.71875,-17.578125,-35.7421875
12.00003719329834,1678385670.7105892,0.13037109375,0.021484375,-0.978515625,-0.457763671875,1.02996826171875,1.1444091796875,11.279296875,-18.017578125,-34.716796875
12.20003867149353,1678385670.9105906,0.127685546875,0.0263671875,-0.985107421875,-0.43487548828125,1.39617919921875,1.19781494140625,12.01171875,-15.52734375,-35.44921875
12.400039434432983,1678385671.1105914,0.152587890625,0.022216796875,-0.98291015625,-0.46539306640625,1.15203857421875,1.28936767578125,11.865234375,-16.552734375,-35.302734375
12.600039720535278,1678385671.3105917,0.136474609375,0.015380859375,-0.9833984375,-0.93841552734375,0.81634521484375,1.2359619140625,10.83984375,-16.11328125,-36.328125
12.80004072189331,1678385671.5105927,0.1396484375,0.02294921875,-0.971923828125,-0.25177001953125,1.0833740234375,1.22833251953125,10.107421875,-17.138671875,-34.716796875
13.000041961669922,1678385671.710594,0.15234375,0.039306640625,-0.97705078125,-0.54168701171875,0.885009765625,1.39617919921875,11.572265625,-17.138671875,-34.423828125
13.200042486190796,1678385671.9105945,0.140625,0.030517578125,-0.9814453125,-0.58746337890625,0.67138671875,1.07574462890625,10.83984375,-18.1640625,-33.3984375
13.40004277229309,1678385672.1105947,0.13037109375,0.019287109375,-0.974853515625,-0.2593994140625,1.57928466796875,1.373291015625,10.986328125,-16.259765625,-35.888671875
13.600043535232544,1678385672.3105955,0.1484375,0.020263671875,-0.9736328125,-0.48828125,1.06048583984375,1.2969970703125,10.546875,-16.40625,-34.86328125
13.800043821334839,1678385672.5105958,0.126953125,0.022705078125,-0.98095703125,-0.31280517578125,1.21307373046875,1.1138916015625,10.693359375,-16.845703125,-34.716796875
14.000044345855713,1678385672.7105963,0.151123046875,0.01708984375,-0.97021484375,-0.72479248046875,1.39617919921875,1.3275146484375,11.279296875,-16.845703125,-35.302734375
14.200045108795166,1678385672.910597,0.138916015625,0.013427734375,-0.974365234375,-0.54168701171875,0.29754638671875,1.2359619140625,11.1328125,-16.69921875,-34.5703125
14.400045394897461,1678385673.1105974,0.125,0.013916015625,-0.975830078125,-0.96893310546875,1.678466796875,1.312255859375,10.25390625,-16.9921875,-35.7421875
14.600046396255493,1678385673.3105984,0.156494140625,0.0283203125,-0.96484375,-0.51116943359375,1.4190673828125,1.28173828125,11.1328125,-17.28515625,-35.15625
14.800048112869263,1678385673.5106,0.145751953125,0.030029296875,-0.976318359375,-0.3814697265625,0.762939453125,1.28936767578125,10.107421875,-17.431640625,-35.009765625
15.000049591064453,1678385673.7106016,0.111083984375,0.0048828125,-0.972900390625,-0.26702880859375,1.77001953125,0.99945068359375,9.814453125,-17.138671875,-33.837890625
15.200049638748169,1678385673.9106016,0.147216796875,0.01904296875,-0.97265625,-0.81634521484375,1.434326171875,1.434326171875,10.83984375,-17.87109375,-35.15625
15.400049924850464,1678385674.110602,0.145751953125,0.02392578125,-0.97900390625,-0.8392333984375,0.30517578125,1.04522705078125,11.572265625,-18.310546875,-35.302734375
15.600050926208496,1678385674.310603,0.127685546875,0.02978515625,-0.970947265625,-0.64849853515625,1.19781494140625,1.2969970703125,11.279296875,-17.138671875,-35.009765625
15.800051212310791,1678385674.5106032,0.145751953125,0.00634765625,-0.9755859375,-0.51116943359375,1.04522705078125,1.06048583984375,11.71875,-17.578125,-34.27734375
16.000051975250244,1678385674.710604,0.131591796875,0.010986328125,-0.9775390625,-0.70953369140625,0.732421875,1.09100341796875,9.9609375,-17.87109375,-33.984375
16.200053691864014,1678385674.9106057,0.133056640625,0.034912109375,-0.986572265625,-0.823974609375,1.67083740234375,1.129150390625,11.279296875,-18.017578125,-33.251953125
16.400054216384888,1678385675.1106062,0.15478515625,0.035888671875,-0.96240234375,-0.4119873046875,0.701904296875,1.24359130859375,9.66796875,-17.28515625,-34.5703125
16.60005521774292,1678385675.3106072,0.12646484375,0.01025390625,-0.9765625,-0.70953369140625,0.95367431640625,1.19781494140625,10.693359375,-17.431640625,-35.302734375
16.80005645751953,1678385675.5106084,0.11376953125,0.001220703125,-0.983642578125,-0.99945068359375,1.5411376953125,1.48773193359375,10.83984375,-16.9921875,-35.44921875
17.000057697296143,1678385675.7106097,0.1669921875,0.03759765625,-0.973876953125,-0.80108642578125,0.823974609375,1.2969970703125,11.42578125,-17.28515625,-35.15625
17.200059175491333,1678385675.9106112,0.14404296875,0.023681640625,-0.9716796875,-0.54931640625,0.52642822265625,1.18255615234375,10.25390625,-16.40625,-35.15625
17.400059461593628,1678385676.1106114,0.131591796875,0.0146484375,-0.967041015625,-0.3814697265625,1.4801025390625,1.15966796875,11.71875,-17.578125,-34.5703125
17.600059509277344,1678385676.3106115,0.14990234375,0.003173828125,-0.968505859375,-0.90789794921875,1.22833251953125,1.38092041015625,11.279296875,-17.138671875,-35.595703125
17.800060033798218,1678385676.510612,0.154296875,0.028076171875,-0.979248046875,-0.79345703125,0.5645751953125,1.4495849609375,9.814453125,-16.552734375,-34.130859375
18.00006103515625,1678385676.710613,0.147216796875,0.035888671875,-0.980224609375,-0.3662109375,1.2664794921875,1.31988525390625,10.986328125,-18.017578125,-34.716796875
18.200062036514282,1678385676.910614,0.14404296875,0.025390625,-0.984130859375,-0.38909912109375,0.8697509765625,1.3275146484375,10.546875,-17.87109375,-35.15625
18.400062322616577,1678385677.1106143,0.138671875,-0.009765625,-0.976806640625,-0.60272216796875,0.86212158203125,1.21307373046875,10.400390625,-18.017578125,-35.302734375
18.600064039230347,1678385677.310616,0.147216796875,0.046630859375,-0.968994140625,-1.0223388671875,1.068115234375,1.27410888671875,10.83984375,-16.9921875,-35.15625
18.800064086914062,1678385677.510616,0.148193359375,0.016845703125,-0.9755859375,-0.2593994140625,1.12152099609375,1.1749267578125,11.42578125,-16.9921875,-34.5703125
19.000064373016357,1678385677.7106164,0.127685546875,0.011474609375,-0.973388671875,-0.67901611328125,1.77764892578125,1.30462646484375,10.107421875,-16.845703125,-34.423828125
19.200065851211548,1678385677.9106178,0.15283203125,0.005615234375,-0.97265625,-0.78582763671875,0.67901611328125,1.2359619140625,10.986328125,-16.845703125,-34.423828125
19.400066614151,1678385678.1106186,0.14697265625,0.024169921875,-0.97119140625,-1.09100341796875,1.068115234375,1.2969970703125,10.693359375,-18.603515625,-34.716796875
19.600067138671875,1678385678.310619,0.134033203125,0.045166015625,-0.97412109375,-0.5340576171875,1.8157958984375,1.3885498046875,11.1328125,-15.8203125,-35.7421875
19.80006742477417,1678385678.5106194,0.152587890625,0.02490234375,-0.9541015625,-0.49591064453125,0.9613037109375,0.99945068359375,11.42578125,-16.40625,-33.69140625
20.00006890296936,1678385678.7106209,0.1484375,0.000244140625,-0.9658203125,-0.35858154296875,0.54931640625,1.25885009765625,10.400390625,-17.431640625,-34.716796875
20.20007038116455,1678385678.9106224,0.130859375,0.009765625,-0.985595703125,-0.9765625,1.54876708984375,1.48773193359375,11.1328125,-16.9921875,-35.44921875
20.400071620941162,1678385679.1106236,0.143310546875,0.043701171875,-0.958984375,-0.3662109375,0.98419189453125,1.220703125,10.546875,-16.40625,-34.27734375
20.600071668624878,1678385679.3106236,0.1484375,0.0234375,-0.981201171875,-0.78582763671875,1.1444091796875,1.3580322265625,11.1328125,-15.8203125,-34.27734375
20.80007243156433,1678385679.5106244,0.127685546875,0.001953125,-0.96728515625,-0.26702880859375,1.4190673828125,1.22833251953125,10.83984375,-16.40625,-35.7421875
21.000073194503784,1678385679.7106252,0.15771484375,0.02001953125,-0.9658203125,-1.01470947265625,1.068115234375,1.28173828125,11.42578125,-17.28515625,-33.69140625
21.200073719024658,1678385679.9106257,0.137939453125,0.02734375,-0.981201171875,-0.40435791015625,0.89263916015625,1.38092041015625,10.986328125,-16.552734375,-34.716796875
21.400075435638428,1678385680.1106274,0.12890625,0.0234375,-0.9736328125,-0.81634521484375,1.5106201171875,1.24359130859375,11.279296875,-16.845703125,-34.716796875
21.6000759601593,1678385680.310628,0.150390625,0.030517578125,-0.967529296875,-0.4119873046875,1.28173828125,1.3885498046875,10.400390625,-15.966796875,-33.251953125
21.800077438354492,1678385680.5106294,0.13720703125,0.00634765625,-0.977783203125,-0.91552734375,0.9307861328125,1.16729736328125,11.1328125,-16.11328125,-33.984375
22.000078916549683,1678385680.710631,0.1484375,0.017822265625,-0.9765625,-0.91552734375,1.42669677734375,1.068115234375,11.1328125,-17.87109375,-33.3984375
22.2000789642334,1678385680.910631,0.145751953125,0.032958984375,-0.97216796875,-0.69427490234375,0.95367431640625,1.312255859375,10.546875,-16.69921875,-33.69140625
22.40008020401001,1678385681.1106322,0.13671875,0.02783203125,-0.965087890625,-0.5340576171875,0.7171630859375,1.4801025390625,10.400390625,-16.845703125,-35.009765625
22.60008144378662,1678385681.3106334,0.157470703125,0.0146484375,-0.984130859375,-0.91552734375,1.2664794921875,1.28173828125,11.42578125,-17.28515625,-35.15625
22.800082206726074,1678385681.5106342,0.151123046875,0.018310546875,-0.972900390625,-0.8544921875,0.52642822265625,1.2054443359375,10.400390625,-16.845703125,-35.009765625
23.000083684921265,1678385681.7106357,0.1318359375,0.029541015625,-0.973876953125,-0.457763671875,1.3275146484375,1.2969970703125,10.986328125,-17.138671875,-34.130859375
23.20008397102356,1678385681.910636,0.15625,0.031005859375,-0.9619140625,-0.79345703125,1.220703125,1.3427734375,10.986328125,-16.259765625,-33.837890625
23.400084495544434,1678385682.1106365,0.13818359375,0.00390625,-0.988525390625,-0.60272216796875,1.312255859375,0.98419189453125,9.814453125,-16.552734375,-33.837890625
23.60008430480957,1678385682.3106363,0.13671875,0.01806640625,-0.982177734375,-0.732421875,1.6021728515625,1.27410888671875,9.814453125,-18.017578125,-35.302734375
23.800084590911865,1678385682.5106366,0.155517578125,0.044921875,-0.975341796875,-0.5340576171875,1.2054443359375,1.2359619140625,10.83984375,-18.75,-34.5703125
24.000085830688477,1678385682.7106378,0.144287109375,0.0048828125,-0.974609375,-0.57220458984375,0.8087158203125,1.18255615234375,9.814453125,-16.259765625,-33.837890625
24.20008635520935,1678385682.9106383,0.139892578125,0.014404296875,-0.972412109375,-0.640869140625,1.5411376953125,1.16729736328125,11.71875,-16.40625,-34.86328125
24.40008783340454,1678385683.1106398,0.151611328125,0.027099609375,-0.978515625,-0.60272216796875,0.90789794921875,1.2664794921875,9.814453125,-17.724609375,-33.544921875
24.600088357925415,1678385683.3106403,0.12939453125,0.036376953125,-0.974609375,-0.48065185546875,1.73187255859375,1.1749267578125,11.279296875,-16.259765625,-34.423828125
24.800089120864868,1678385683.510641,0.122314453125,0.0078125,-1.03369140625,0.29754638671875,2.8228759765625,1.09100341796875,10.986328125,-16.552734375,-35.302734375
25.000089645385742,1678385683.7106416,0.1640625,0.01513671875,-0.9287109375,-0.885009765625,0.2899169921875,1.2359619140625,10.546875,-18.45703125,-33.984375
25.200089693069458,1678385683.9106417,0.2421875,0.0224609375,-0.982177734375,-0.43487548828125,2.61688232421875,1.07574462890625,10.400390625,-17.431640625,-35.009765625
25.40009093284607,1678385684.110643,0.280029296875,0.03369140625,-0.96875,-0.34332275390625,1.6937255859375,1.312255859375,10.400390625,-16.845703125,-35.009765625
25.600091695785522,1678385684.3106437,0.315673828125,0.007080078125,-0.937255859375,-0.4730224609375,1.94549560546875,1.28936767578125,11.1328125,-17.578125,-33.984375
25.800091981887817,1678385684.510644,0.347900390625,0.002685546875,-0.9375,-0.8544921875,1.739501953125,1.31988525390625,9.66796875,-18.45703125,-33.984375
26.00009274482727,1678385684.7106447,0.3369140625,0.024169921875,-0.920166015625,-0.32806396484375,0.06103515625,1.220703125,10.83984375,-18.75,-35.15625
26.200093507766724,1678385684.9106455,0.35791015625,0.001220703125,-0.879638671875,-1.02996826171875,0.1983642578125,1.0223388671875,11.279296875,-16.845703125,-35.009765625
26.40009379386902,1678385685.1106458,0.353271484375,-0.010498046875,-0.947509765625,-0.701904296875,2.06756591796875,1.2359619140625,12.59765625,-17.87109375,-35.15625
26.600095510482788,1678385685.3106475,0.3525390625,0.0263671875,-0.9033203125,-0.9613037109375,-0.0457763671875,0.75531005859375,10.400390625,-16.845703125,-34.130859375
26.800095796585083,1678385685.5106478,0.317626953125,0.002197265625,-0.908203125,-0.2593994140625,1.02996826171875,1.0986328125,10.986328125,-17.138671875,-34.423828125
27.000096797943115,1678385685.7106488,0.286865234375,0.026123046875,-0.97412109375,-0.8544921875,0.84686279296875,0.5340576171875,10.83984375,-18.45703125,-34.27734375
27.20009732246399,1678385685.9106493,0.293212890625,-0.019775390625,-0.930908203125,-0.3814697265625,0.63323974609375,1.28936767578125,10.986328125,-18.017578125,-34.423828125
27.400097608566284,1678385686.1106496,0.34521484375,0.001220703125,-0.865234375,-2.17437744140625,0.43487548828125,0.92315673828125,9.375,-17.28515625,-34.27734375
27.600099086761475,1678385686.310651,0.313232421875,0.024169921875,-0.927978515625,-0.3662109375,0.5950927734375,1.15203857421875,10.546875,-18.1640625,-33.10546875
27.800100088119507,1678385686.510652,0.25244140625,-0.024658203125,-0.97998046875,-0.29754638671875,1.9073486328125,0.6561279296875,11.1328125,-17.28515625,-34.5703125
28.0001003742218,1678385686.7106524,0.19091796875,-0.003662109375,-0.932373046875,-3.4027099609375,-1.77764892578125,0.3509521484375,11.572265625,-18.603515625,-34.130859375
28.200100898742676,1678385686.9106529,0.158935546875,0.03662109375,-0.912841796875,-0.885009765625,4.21142578125,0.37384033203125,10.25390625,-18.1640625,-33.69140625
28.40010118484497,1678385687.1106532,0.296875,-0.032958984375,-0.898193359375,-2.87628173828125,1.60980224609375,0.7171630859375,11.279296875,-17.724609375,-34.423828125
28.600101709365845,1678385687.3106537,0.33447265625,0.07373046875,-1.028564453125,-4.08172607421875,0.5950927734375,0.70953369140625,10.83984375,-18.45703125,-33.984375
28.800103425979614,1678385687.5106554,0.24072265625,0.05859375,-0.9267578125,-0.6103515625,-0.244140625,1.52587890625,10.25390625,-18.45703125,-34.5703125
29.000104188919067,1678385687.7106562,0.17431640625,0.051025390625,-1.01416015625,-3.19671630859375,-0.7781982421875,0.67901611328125,10.107421875,-18.017578125,-33.251953125
29.2001051902771,1678385687.9106572,0.089111328125,0.161376953125,-0.986328125,-1.39617919921875,2.63214111328125,1.36566162109375,10.546875,-16.69921875,-33.69140625
29.400105237960815,1678385688.1106572,0.098876953125,-0.028076171875,-1.134765625,2.44903564453125,0.0152587890625,2.49481201171875,11.279296875,-16.552734375,-34.716796875
29.60010552406311,1678385688.3106575,0.15380859375,0.0029296875,-0.893310546875,-1.10626220703125,2.44140625,1.48773193359375,10.25390625,-16.9921875,-34.86328125
29.800106525421143,1678385688.5106585,0.19091796875,0.0185546875,-0.890380859375,-1.0528564453125,1.74713134765625,0.9613037109375,10.107421875,-15.966796875,-34.130859375
30.000107049942017,1678385688.710659,0.10009765625,0.03466796875,-0.93994140625,0.1983642578125,0.7781982421875,1.94549560546875,9.9609375,-17.578125,-34.27734375
30.20010781288147,1678385688.9106598,0.10009765625,0.02490234375,-0.913818359375,-0.52642822265625,4.28009033203125,1.0833740234375,12.01171875,-18.1640625,-33.984375
30.40010905265808,1678385689.110661,0.159912109375,0.012939453125,-1.03369140625,-0.12969970703125,0.091552734375,1.3580322265625,11.572265625,-17.431640625,-33.251953125
30.600109100341797,1678385689.310661,0.150390625,0.078125,-1.06103515625,-0.17547607421875,1.708984375,1.15203857421875,10.693359375,-18.310546875,-33.837890625
30.80010962486267,1678385689.5106616,0.202880859375,0.039306640625,-0.9326171875,-2.2430419921875,1.19781494140625,1.04522705078125,10.83984375,-16.9921875,-33.10546875
31.000109910964966,1678385689.710662,0.17919921875,0.030517578125,-0.9580078125,-0.43487548828125,2.44140625,1.4495849609375,9.66796875,-17.578125,-33.10546875
31.20011043548584,1678385689.9106624,0.1337890625,0.0361328125,-0.908447265625,-3.8604736328125,2.197265625,0.823974609375,10.25390625,-17.87109375,-33.984375
31.40011191368103,1678385690.110664,0.174560546875,0.026611328125,-0.910888671875,-2.26593017578125,-3.21197509765625,1.1138916015625,9.814453125,-17.431640625,-33.544921875
31.60011315345764,1678385690.3106651,0.116455078125,0.056396484375,-0.998291015625,-1.10626220703125,1.3275146484375,1.373291015625,10.25390625,-17.87109375,-33.3984375
31.800113916397095,1678385690.510666,0.2080078125,0.022705078125,-0.986083984375,0.9307861328125,-0.640869140625,1.68609619140625,10.693359375,-16.845703125,-33.837890625
32.00011491775513,1678385690.710667,0.148681640625,0.070068359375,-0.998291015625,-1.21307373046875,5.54656982421875,1.04522705078125,10.25390625,-17.28515625,-33.3984375
32.20011520385742,1678385690.9106672,0.215087890625,-0.02587890625,-0.916748046875,-1.79290771484375,4.8980712890625,1.12152099609375,9.9609375,-19.04296875,-32.51953125
32.40011692047119,1678385691.110669,0.1982421875,0.0771484375,-0.944580078125,0.79345703125,-2.18963623046875,0.87738037109375,10.986328125,-17.431640625,-32.666015625
32.600117444992065,1678385691.3106694,0.118408203125,0.0380859375,-1.108642578125,0.335693359375,2.2125244140625,1.57928466796875,10.986328125,-15.966796875,-33.837890625
32.800119161605835,1678385691.5106711,0.092041015625,0.104736328125,-0.876708984375,0.3509521484375,6.81304931640625,1.35040283203125,12.451171875,-18.017578125,-33.837890625
33.00011897087097,1678385691.710671,0.197265625,0.025146484375,-1.01806640625,4.35638427734375,-0.81634521484375,1.861572265625,9.9609375,-16.11328125,-32.8125
33.200119733810425,1678385691.9106717,0.06298828125,0.030029296875,-1.0166015625,0.4730224609375,-1.190185546875,0.69427490234375,10.83984375,-15.8203125,-33.3984375
33.40011930465698,1678385692.1106713,0.197021484375,-0.002685546875,-0.92822265625,-1.7242431640625,0.11444091796875,0.54168701171875,10.986328125,-16.259765625,-34.130859375
33.600119829177856,1678385692.3106718,0.166748046875,0.063720703125,-0.949462890625,3.021240234375,-0.06866455078125,1.1138916015625,10.107421875,-16.845703125,-34.130859375
33.800121784210205,1678385692.5106738,0.15185546875,-0.013671875,-0.833251953125,-0.96893310546875,0.67138671875,1.28936767578125,10.986328125,-17.724609375,-33.837890625
34.000123023986816,1678385692.710675,0.200439453125,0.042236328125,-0.938232421875,0.96893310546875,-2.37274169921875,0.8697509765625,12.01171875,-15.8203125,-33.10546875
34.20012307167053,1678385692.910675,0.1181640625,-0.01708984375,-0.88818359375,2.532958984375,4.150390625,1.617431640625,10.546875,-15.8203125,-34.27734375
34.400123834609985,1678385693.1106758,0.270263671875,-0.047607421875,-0.73095703125,-0.83160400390625,5.91278076171875,-1.1749267578125,12.01171875,-16.69921875,-33.69140625
34.60012412071228,1678385693.310676,0.079833984375,0.024658203125,-1.23193359375,-4.18853759765625,1.495361328125,0.3509521484375,12.158203125,-17.724609375,-34.716796875
34.80012369155884,1678385693.5106757,0.208984375,-0.042236328125,-1.14599609375,5.36346435546875,-11.3372802734375,-1.86920166015625,12.451171875,-15.966796875,-34.130859375
35.00012540817261,1678385693.7106774,0.13720703125,-0.184814453125,-0.960693359375,-0.3814697265625,2.0751953125,-7.28607177734375,12.451171875,-15.966796875,-35.302734375
35.20012593269348,1678385693.910678,0.125244140625,-0.16357421875,-1.00244140625,3.85284423828125,-3.60107421875,-12.00103759765625,12.451171875,-13.916015625,-34.423828125
35.40012717247009,1678385694.1106791,0.06884765625,-0.16162109375,-0.853759765625,1.60980224609375,-2.90679931640625,-16.27349853515625,12.01171875,-13.4765625,-34.5703125
35.60012745857239,1678385694.3106794,0.06201171875,-0.2080078125,-0.989013671875,3.57818603515625,-0.38909912109375,-21.4385986328125,12.01171875,-13.4765625,-34.86328125
35.8001275062561,1678385694.5106795,0.20458984375,-0.255615234375,-1.019775390625,6.82830810546875,-1.60980224609375,-23.529052734375,12.744140625,-10.693359375,-35.009765625
36.000128746032715,1678385694.7106807,-0.024169921875,-0.331298828125,-0.9326171875,3.6773681640625,-2.2735595703125,-27.76336669921875,12.744140625,-8.349609375,-35.888671875
36.20012831687927,1678385694.9106803,-0.00244140625,-0.31298828125,-0.9287109375,-0.31280517578125,-3.51715087890625,-31.707763671875,13.330078125,-7.177734375,-36.181640625
36.40012860298157,1678385695.1106806,-0.00634765625,-0.3291015625,-0.968505859375,7.6141357421875,-1.52587890625,-34.35516357421875,14.6484375,-6.4453125,-35.44921875
36.60012984275818,1678385695.3106818,0.1025390625,-0.24853515625,-0.96044921875,-0.43487548828125,7.6751708984375,-34.7900390625,14.94140625,-2.34375,-36.62109375
36.80013108253479,1678385695.510683,0.064453125,-0.295166015625,-0.9208984375,6.75201416015625,2.00653076171875,-33.2183837890625,15.673828125,-3.662109375,-37.060546875
37.00013208389282,1678385695.710684,0.171630859375,-0.291015625,-0.960205078125,5.16510009765625,3.83758544921875,-32.989501953125,16.69921875,-1.46484375,-38.37890625
37.20013213157654,1678385695.910684,0.157470703125,-0.201416015625,-0.869873046875,0.40435791015625,0.3509521484375,-35.3851318359375,18.1640625,-1.171875,-37.79296875
37.40013265609741,1678385696.1106846,0.092529296875,-0.162841796875,-0.966064453125,4.8828125,3.47137451171875,-34.423828125,20.80078125,-0.5859375,-38.37890625
37.60013294219971,1678385696.310685,0.240966796875,-0.208740234375,-0.765869140625,8.5296630859375,-0.25177001953125,-29.53338623046875,21.38671875,0.29296875,-40.4296875
37.80013418197632,1678385696.5106862,0.502685546875,-0.273193359375,-0.872802734375,-3.60870361328125,-4.6539306640625,-26.86309814453125,22.998046875,1.904296875,-40.869140625
38.00013494491577,1678385696.710687,0.263427734375,-0.04541015625,-0.981201171875,8.79669189453125,3.4332275390625,-21.99554443359375,24.462890625,2.197265625,-40.283203125
38.20013499259949,1678385696.910687,0.24951171875,-0.19384765625,-0.82373046875,2.61688232421875,-1.4495849609375,-18.48602294921875,26.66015625,0.5859375,-41.015625
38.40013551712036,1678385697.1106875,0.29248046875,-0.042236328125,-0.92822265625,-4.66156005859375,0.43487548828125,-13.8092041015625,26.513671875,-0.439453125,-41.748046875
38.600136518478394,1678385697.3106885,0.2890625,-0.03271484375,-1.01416015625,5.68389892578125,-0.80108642578125,-10.44464111328125,27.685546875,-2.490234375,-43.505859375
38.800230979919434,1678385697.510783,0.459716796875,-0.1005859375,-0.975341796875,-1.62506103515625,1.5869140625,-6.53076171875,29.58984375,-4.1015625,-43.06640625
39.000231981277466,1678385697.710784,0.264404296875,-0.004638671875,-0.896240234375,1.2664794921875,3.173828125,-3.56292724609375,26.66015625,-5.859375,-42.1875
39.20023322105408,1678385697.9107852,0.14697265625,-0.001708984375,-0.927734375,-0.77056884765625,2.1209716796875,-2.41851806640625,29.00390625,-7.03125,-42.7734375
39.40023350715637,1678385698.1107855,0.296875,-0.08154296875,-1.003173828125,1.9073486328125,3.0059814453125,-0.4425048828125,24.755859375,-8.642578125,-42.919921875
39.600234508514404,1678385698.3107865,0.276611328125,0.028076171875,-0.985107421875,-1.2969970703125,-0.0152587890625,-0.2899169921875,24.90234375,-8.7890625,-41.89453125
39.80023431777954,1678385698.5107863,0.359130859375,-0.033447265625,-0.90478515625,-2.1514892578125,-0.5645751953125,1.96075439453125,23.583984375,-11.279296875,-39.697265625
40.000234603881836,1678385698.7107866,0.284912109375,0.097900390625,-0.981689453125,0.6256103515625,-1.5869140625,1.12152099609375,22.55859375,-11.71875,-37.20703125
40.200236082077026,1678385698.910788,0.178955078125,0.012939453125,-0.83935546875,-1.068115234375,1.556396484375,0.4119873046875,21.09375,-9.9609375,-34.27734375
40.40023708343506,1678385699.110789,0.382568359375,0.052978515625,-0.917724609375,-0.9765625,-3.70025634765625,1.09100341796875,22.998046875,-8.349609375,-33.837890625
40.60023808479309,1678385699.31079,0.257568359375,-0.0009765625,-0.914794921875,-0.72479248046875,5.54656982421875,1.51824951171875,21.97265625,-3.80859375,-32.51953125
40.800238609313965,1678385699.5107906,0.28125,0.066162109375,-0.948974609375,-1.129150390625,1.42669677734375,1.45721435546875,22.265625,-1.7578125,-31.34765625
41.00023913383484,1678385699.710791,0.2060546875,0.035888671875,-0.994384765625,-1.373291015625,3.8604736328125,0.67901611328125,23.291015625,-0.146484375,-32.666015625
41.200238943099976,1678385699.910791,0.300537109375,-0.037841796875,-0.90673828125,-1.39617919921875,-5.7525634765625,1.13677978515625,24.462890625,2.197265625,-36.474609375
41.40023922920227,1678385700.1107912,0.141845703125,-0.045166015625,-0.726806640625,-1.99127197265625,8.30078125,0.83160400390625,23.583984375,0.732421875,-37.353515625
41.600239515304565,1678385700.3107915,0.384765625,0.04248046875,-0.89501953125,-4.1656494140625,0.42724609375,1.739501953125,23.291015625,-0.439453125,-37.353515625
41.800240993499756,1678385700.510793,0.142822265625,0.216064453125,-0.842529296875,0.885009765625,2.28118896484375,2.28118896484375,23.583984375,0.732421875,-36.474609375
42.00024127960205,1678385700.7107933,0.226806640625,0.05517578125,-1.017333984375,2.76947021484375,1.556396484375,1.96075439453125,23.583984375,1.025390625,-36.767578125
42.200241804122925,1678385700.9107938,0.01123046875,-0.042236328125,-0.992919921875,-0.1983642578125,0.95367431640625,2.105712890625,23.4375,0.29296875,-38.0859375
42.4002423286438,1678385701.1107943,0.28173828125,-0.0908203125,-0.967529296875,-2.4261474609375,1.800537109375,1.5716552734375,22.8515625,-2.34375,-38.37890625
42.60024380683899,1678385701.3107958,0.22900390625,-0.05078125,-0.833984375,-4.87518310546875,2.7923583984375,1.35040283203125,22.998046875,0.146484375,-36.767578125
42.800244092941284,1678385701.510796,-0.031494140625,0.033203125,-1.017578125,-0.57220458984375,5.19561767578125,0.90789794921875,22.998046875,-1.904296875,-36.767578125
43.000245332717896,1678385701.7107973,0.0947265625,0.018310546875,-0.59326171875,-3.25775146484375,1.8463134765625,-0.8392333984375,23.291015625,-1.318359375,-37.939453125
43.20024633407593,1678385701.9107983,0.300048828125,0.041015625,-0.8623046875,1.03759765625,-4.4708251953125,0.86212158203125,23.583984375,-2.783203125,-37.060546875
43.40024662017822,1678385702.1107986,-0.081298828125,-0.00830078125,-0.742919921875,0.98419189453125,-0.579833984375,-2.73895263671875,24.0234375,-2.05078125,-37.5
43.60024690628052,1678385702.310799,0.40478515625,-0.041748046875,-1.113525390625,1.60980224609375,-0.55694580078125,3.02886962890625,24.755859375,-1.611328125,-38.232421875
43.80024862289429,1678385702.5108006,0.15673828125,-0.0634765625,-0.869384765625,-5.37109375,-4.2877197265625,0.6866455078125,23.14453125,-0.87890625,-37.20703125
44.00024890899658,1678385702.710801,0.218994140625,-0.057373046875,-0.806884765625,-4.0435791015625,1.53350830078125,1.86920166015625,23.291015625,-1.611328125,-36.767578125
44.2002489566803,1678385702.910801,0.012451171875,-0.001708984375,-0.592041015625,-6.29425048828125,-7.30133056640625,1.0223388671875,23.14453125,-1.46484375,-38.0859375
44.40025091171265,1678385703.110803,0.24658203125,-0.007568359375,-0.928466796875,-0.78582763671875,-2.40325927734375,0.48828125,23.291015625,-2.783203125,-37.353515625
44.60025095939636,1678385703.310803,0.16455078125,-0.00537109375,-1.10400390625,-1.46484375,7.3089599609375,1.65557861328125,22.998046875,-1.611328125,-38.525390625
44.800251722335815,1678385703.5108037,0.195556640625,-0.00146484375,-0.971923828125,-0.43487548828125,4.79888916015625,1.18255615234375,23.4375,-1.46484375,-39.2578125
45.000253200531006,1678385703.7108052,0.196533203125,-0.0634765625,-0.8974609375,-3.0517578125,6.16455078125,1.4801025390625,22.705078125,-1.318359375,-38.232421875
45.20025420188904,1678385703.9108062,0.109619140625,0.06982421875,-0.873779296875,0.69427490234375,-1.60980224609375,1.495361328125,24.169921875,-2.197265625,-36.767578125
45.40025448799133,1678385704.1108065,0.2490234375,0.112060546875,-1.018798828125,1.7242431640625,2.32696533203125,1.68609619140625,23.14453125,-2.9296875,-38.96484375
45.60025453567505,1678385704.3108065,0.124267578125,0.117431640625,-0.984375,-1.40380859375,3.0670166015625,1.30462646484375,23.291015625,-2.490234375,-38.525390625
45.80025601387024,1678385704.510808,0.36279296875,0.114501953125,-0.88232421875,2.25067138671875,-2.5634765625,2.0599365234375,23.583984375,-2.197265625,-37.939453125
46.00025725364685,1678385704.7108092,0.237548828125,0.023681640625,-0.86767578125,3.16619873046875,3.80706787109375,1.36566162109375,24.31640625,-0.87890625,-38.96484375
46.20025873184204,1678385704.9108107,0.240966796875,-0.009521484375,-0.9697265625,0.98419189453125,3.44085693359375,1.74713134765625,23.876953125,-0.439453125,-38.818359375
46.40026021003723,1678385705.1108122,0.404541015625,-0.03857421875,-1.024658203125,-3.31878662109375,-0.5340576171875,1.5716552734375,24.90234375,-1.46484375,-40.13671875
46.600261926651,1678385705.310814,0.2138671875,0.03271484375,-0.93310546875,1.708984375,-2.55584716796875,2.43377685546875,24.609375,-1.171875,-39.2578125
46.80026197433472,1678385705.510814,0.277587890625,-0.025390625,-1.010498046875,1.0528564453125,3.0059814453125,1.8157958984375,23.876953125,-1.611328125,-39.404296875
47.00026297569275,1678385705.710815,0.13330078125,0.098876953125,-0.9384765625,-3.74603271484375,0.93841552734375,2.63214111328125,25.48828125,-2.9296875,-38.96484375
47.2002637386322,1678385705.9108157,0.23828125,0.031494140625,-0.93212890625,-2.9296875,2.38800048828125,0.02288818359375,25.1953125,-1.7578125,-39.2578125
47.40026378631592,1678385706.1108158,0.0771484375,0.105712890625,-1.041259765625,-1.53350830078125,5.71441650390625,0.03814697265625,24.0234375,-2.34375,-37.20703125
47.60026431083679,1678385706.3108163,0.177490234375,0.070556640625,-1.004150390625,-2.23541259765625,3.6163330078125,2.6092529296875,24.169921875,-2.197265625,-39.404296875
47.80026626586914,1678385706.5108182,0.21337890625,0.04052734375,-0.94677734375,-0.16021728515625,-1.25885009765625,1.495361328125,23.4375,-1.46484375,-38.671875
48.000267028808594,1678385706.710819,0.28515625,0.053955078125,-1.051513671875,-0.7781982421875,0.1068115234375,2.09808349609375,22.998046875,-1.025390625,-38.525390625
48.200268268585205,1678385706.9108202,0.11279296875,-0.013671875,-1.04248046875,-1.48773193359375,1.6632080078125,1.47247314453125,22.55859375,-0.87890625,-39.55078125
48.40026831626892,1678385707.1108203,0.110595703125,0.058349609375,-1.021728515625,-0.518798828125,2.78472900390625,1.25885009765625,24.169921875,-2.490234375,-38.818359375
48.600268602371216,1678385707.3108206,0.271728515625,0.010986328125,-1.062255859375,-1.30462646484375,0.31280517578125,1.86920166015625,22.119140625,-2.490234375,-38.525390625
48.80026841163635,1678385707.5108204,0.22705078125,0.0087890625,-0.986572265625,2.41851806640625,-1.73187255859375,2.6397705078125,23.73046875,-2.05078125,-37.79296875
49.000269412994385,1678385707.7108214,0.2275390625,-0.030029296875,-0.869873046875,-1.68609619140625,-3.509521484375,1.59454345703125,23.291015625,-1.904296875,-38.232421875
49.2002694606781,1678385707.9108214,0.005859375,0.0654296875,-0.9580078125,0.1983642578125,0.40435791015625,1.77764892578125,21.97265625,-2.34375,-36.62109375
49.400269508361816,1678385708.1108215,0.23046875,-0.004638671875,-0.810546875,-1.86920166015625,2.0294189453125,1.41143798828125,22.265625,-2.05078125,-37.5
49.60027098655701,1678385708.310823,0.27099609375,-0.104248046875,-1.017333984375,-1.09100341796875,0.4730224609375,1.85394287109375,23.583984375,-1.611328125,-36.474609375
49.80027151107788,1678385708.5108235,0.257568359375,-0.008056640625,-0.969970703125,-1.12152099609375,-1.39617919921875,2.96783447265625,22.705078125,-1.318359375,-36.474609375
50.00027298927307,1678385708.710825,0.0380859375,0.081298828125,-0.99072265625,1.495361328125,-1.45721435546875,1.22833251953125,23.583984375,-2.783203125,-37.353515625
50.200273275375366,1678385708.9108253,0.051513671875,0.041259765625,-0.86572265625,-0.1678466796875,-3.34930419921875,1.44195556640625,23.73046875,-2.05078125,-37.79296875
50.40027356147766,1678385709.1108255,0.123291015625,0.02587890625,-0.88720703125,-0.48828125,-2.74658203125,1.46484375,23.583984375,-0.732421875,-36.474609375
50.600274324417114,1678385709.3108263,0.0693359375,-0.02001953125,-1.010986328125,0.3204345703125,3.6773681640625,0.99945068359375,23.73046875,-0.5859375,-38.37890625
50.80027484893799,1678385709.5108268,0.288330078125,0.011962890625,-0.90966796875,-1.07574462890625,-0.030517578125,1.60980224609375,23.876953125,-0.732421875,-38.525390625
51.0002760887146,1678385709.710828,0.152587890625,-0.02490234375,-1.025146484375,-2.01416015625,4.6539306640625,0.7781982421875,23.291015625,-0.732421875,-37.353515625
51.20027732849121,1678385709.9108293,0.177734375,0.13134765625,-0.72021484375,-0.11444091796875,-8.1329345703125,1.02996826171875,23.876953125,-4.833984375,-37.939453125
51.4002788066864,1678385710.1108308,0.16650390625,0.099853515625,-0.732666015625,-1.21307373046875,-12.969970703125,-0.12969970703125,22.705078125,-1.904296875,-37.646484375
51.600279808044434,1678385710.3108318,0.242431640625,0.043212890625,-1.067138671875,-3.80706787109375,5.04302978515625,0.28228759765625,22.265625,-1.7578125,-36.03515625
51.80027985572815,1678385710.5108318,0.138427734375,-0.033935546875,-0.9912109375,1.39617919921875,-4.791259765625,-0.06866455078125,24.31640625,-2.05078125,-38.0859375
52.000280141830444,1678385710.710832,0.235107421875,0.028564453125,-0.996337890625,-0.2899169921875,-3.79180908203125,0.96893310546875,23.4375,-1.7578125,-37.5
52.2002809047699,1678385710.910833,0.174072265625,0.00634765625,-1.068359375,0.32806396484375,3.12042236328125,0.1373291015625,23.4375,-1.46484375,-36.9140625
52.40028190612793,1678385711.110834,0.158935546875,0.022216796875,-0.90673828125,0.030517578125,-3.021240234375,-0.29754638671875,23.583984375,-1.611328125,-38.525390625
52.600281953811646,1678385711.310834,0.163330078125,0.044677734375,-0.956298828125,1.93023681640625,-0.84686279296875,0.5645751953125,24.462890625,-0.732421875,-38.525390625
52.80028247833252,1678385711.5108345,0.1748046875,-0.031005859375,-1.009033203125,2.67791748046875,1.91497802734375,0.34332275390625,24.169921875,-0.439453125,-37.646484375
53.00028324127197,1678385711.7108352,0.018310546875,-0.00732421875,-0.852783203125,0.4119873046875,-2.84576416015625,-0.0762939453125,24.609375,-2.05078125,-39.2578125
53.200284242630005,1678385711.9108362,0.08740234375,-0.120849609375,-1.0107421875,-1.12152099609375,1.93023681640625,0.213623046875,24.462890625,-1.611328125,-37.060546875
53.40028524398804,1678385712.1108372,0.099853515625,0.013916015625,-1.0400390625,-0.99945068359375,0.00762939453125,0.2899169921875,24.609375,-0.87890625,-37.5
53.60028648376465,1678385712.3108385,0.1640625,0.1181640625,-0.812255859375,1.4495849609375,4.92095947265625,1.19781494140625,24.0234375,-1.171875,-38.37890625
53.8002872467041,1678385712.5108392,0.2763671875,0.01904296875,-0.90185546875,3.05938720703125,2.90679931640625,1.06048583984375,25.048828125,-2.490234375,-38.232421875
54.00028848648071,1678385712.7108405,0.221923828125,-0.02978515625,-0.87158203125,-0.732421875,-5.10406494140625,0.244140625,24.31640625,-1.7578125,-38.0859375
54.200289249420166,1678385712.9108412,0.245849609375,-0.001220703125,-1.095458984375,0.2899169921875,3.95965576171875,0.52642822265625,24.31640625,-1.171875,-38.0859375
54.40028953552246,1678385713.1108415,0.1611328125,-0.06201171875,-1.03466796875,0.9307861328125,-2.8533935546875,2.03704833984375,25.634765625,-2.197265625,-37.939453125
54.60029053688049,1678385713.3108425,0.227294921875,0.073974609375,-1.037109375,-0.35858154296875,-0.213623046875,1.312255859375,23.73046875,-1.171875,-37.79296875
54.800292015075684,1678385713.510844,-0.06005859375,0.053466796875,-0.769775390625,-0.823974609375,0.1678466796875,0.732421875,24.462890625,-1.025390625,-38.232421875
55.00029253959656,1678385713.7108445,-0.021240234375,0.0517578125,-0.977783203125,1.73187255859375,7.0953369140625,0.1373291015625,24.31640625,-1.7578125,-38.37890625
55.20029354095459,1678385713.9108455,0.069580078125,-0.161865234375,-1.04833984375,1.93023681640625,-1.91497802734375,0.2593994140625,24.462890625,-0.732421875,-37.353515625
55.40029430389404,1678385714.1108463,0.0458984375,-0.00146484375,-0.6865234375,-0.61798095703125,0.0457763671875,0.49591064453125,24.169921875,-2.197265625,-38.818359375
55.60029482841492,1678385714.3108468,0.11962890625,-0.0087890625,-0.844970703125,-0.67138671875,-5.55419921875,0.22125244140625,24.0234375,-1.7578125,-38.37890625
55.80029559135437,1678385714.5108476,0.353271484375,-0.0068359375,-1.03125,-0.90789794921875,0.6866455078125,1.434326171875,23.583984375,-0.732421875,-36.767578125
56.000296115875244,1678385714.710848,0.3330078125,0.0302734375,-0.76611328125,0.37384033203125,-0.54931640625,1.0223388671875,24.169921875,-1.904296875,-38.232421875
56.2002968788147,1678385714.9108489,0.312744140625,-0.033447265625,-1.03662109375,-1.60980224609375,4.63104248046875,0.70953369140625,23.291015625,-2.490234375,-37.646484375
56.40029811859131,1678385715.11085,-0.089111328125,0.0322265625,-1.014892578125,-0.16021728515625,7.0648193359375,0.2288818359375,23.291015625,-1.318359375,-37.353515625
56.60029911994934,1678385715.310851,0.0546875,-0.08935546875,-1.0732421875,-4.38690185546875,6.89697265625,1.373291015625,24.31640625,-2.34375,-38.37890625
56.800299644470215,1678385715.5108516,-0.116943359375,0.11865234375,-1.086181640625,-2.2125244140625,2.899169921875,1.5716552734375,25.341796875,-2.197265625,-38.525390625
57.000301122665405,1678385715.710853,0.295166015625,0.016845703125,-1.015869140625,1.97601318359375,1.19781494140625,1.9073486328125,22.998046875,-2.197265625,-37.939453125
57.20030236244202,1678385715.9108543,-0.005859375,0.03759765625,-1.1201171875,-3.71551513671875,5.45501708984375,1.33514404296875,24.462890625,-1.904296875,-37.646484375
57.40030312538147,1678385716.110855,-0.07568359375,0.08837890625,-0.88818359375,0.75531005859375,6.72149658203125,2.05230712890625,25.927734375,-1.904296875,-37.060546875
57.60030484199524,1678385716.3108568,-0.26806640625,-0.0263671875,-0.892333984375,-2.13623046875,12.8173828125,0.05340576171875,24.31640625,-1.171875,-35.7421875
57.80030608177185,1678385716.510858,0.222412109375,-0.028076171875,-0.9814453125,1.068115234375,6.89697265625,1.15966796875,24.90234375,-2.05078125,-37.79296875
58.000306606292725,1678385716.7108586,0.326416015625,-0.0791015625,-0.933349609375,-3.173828125,2.3651123046875,-0.37384033203125,24.755859375,-1.611328125,-37.353515625
58.2003071308136,1678385716.910859,-0.007080078125,0.0625,-1.029541015625,0.06103515625,4.72259521484375,0.11444091796875,24.31640625,-1.46484375,-38.0859375
58.40030813217163,1678385717.11086,0.12109375,0.00927734375,-1.01025390625,1.19781494140625,6.35528564453125,0.58746337890625,24.462890625,-1.904296875,-38.232421875
58.60030913352966,1678385717.310861,0.1904296875,0.0595703125,-0.807373046875,1.312255859375,-1.6632080078125,0.48828125,24.31640625,-2.34375,-38.37890625
58.800310373306274,1678385717.5108624,0.09912109375,-0.017333984375,-1.08203125,-0.518798828125,6.43157958984375,1.91497802734375,24.609375,-1.46484375,-36.62109375
59.000311613082886,1678385717.7108636,0.226806640625,-0.158203125,-0.874267578125,2.95257568359375,4.90570068359375,-1.83868408203125,25.048828125,-2.490234375,-36.474609375
59.20031213760376,1678385717.910864,-0.005859375,-0.12353515625,-0.95263671875,-2.62451171875,3.6468505859375,0.06866455078125,23.73046875,-2.63671875,-37.5
59.400312662124634,1678385718.1108646,0.004638671875,0.072509765625,-0.915283203125,-0.35858154296875,-8.026123046875,1.2664794921875,25.341796875,-0.732421875,-37.646484375
59.60031342506409,1678385718.3108654,0.106201171875,0.0673828125,-0.88916015625,-3.18145751953125,2.32696533203125,1.9683837890625,25.048828125,-2.197265625,-37.060546875
59.80031394958496,1678385718.510866,0.02783203125,-0.0419921875,-0.556396484375,-0.52642822265625,-0.9613037109375,1.18255615234375,23.73046875,-1.7578125,-36.9140625
60.00031566619873,1678385718.7108676,-0.134033203125,0.019775390625,-0.932373046875,-2.685546875,7.476806640625,1.25885009765625,24.169921875,-1.318359375,-36.181640625
60.20031690597534,1678385718.910869,0.322021484375,-0.04150390625,-0.985595703125,-1.24359130859375,-0.274658203125,0.77056884765625,24.169921875,-1.025390625,-37.646484375
60.400317668914795,1678385719.1108696,0.324462890625,0.041748046875,-1.08154296875,-0.1373291015625,6.7901611328125,0.030517578125,24.755859375,-1.904296875,-37.060546875
60.60031795501709,1678385719.31087,0.1796875,-0.081787109375,-0.996826171875,-0.457763671875,4.5928955078125,1.54876708984375,22.8515625,-2.05078125,-37.5
60.80031943321228,1678385719.5108714,0.099609375,-0.040283203125,-1.15185546875,-4.6234130859375,0.08392333984375,2.05230712890625,24.169921875,-1.904296875,-37.646484375
61.00031900405884,1678385719.710871,0.155029296875,-0.011474609375,-0.9990234375,-3.9825439453125,-0.6561279296875,1.60980224609375,24.609375,-0.87890625,-36.328125
61.20031929016113,1678385719.9108713,-0.109375,0.06103515625,-0.93359375,-0.3509521484375,4.72259521484375,1.007080078125,25.1953125,-0.87890625,-36.9140625
61.40031933784485,1678385720.1108713,0.1904296875,0.030029296875,-1.026123046875,-1.77764892578125,1.861572265625,1.7547607421875,24.31640625,-0.87890625,-38.0859375
61.60032057762146,1678385720.3108726,0.1650390625,0.027099609375,-1.06298828125,-0.66375732421875,-0.67901611328125,2.2430419921875,24.462890625,-3.076171875,-37.060546875
61.80032134056091,1678385720.5108733,-0.08203125,0.115478515625,-0.842529296875,1.4801025390625,1.617431640625,0.45013427734375,24.0234375,-1.46484375,-36.03515625
62.00032353401184,1678385720.7108755,0.1552734375,-0.097412109375,-1.059814453125,-0.579833984375,2.9144287109375,1.99127197265625,25.341796875,-1.318359375,-37.646484375
62.200323820114136,1678385720.9108758,-0.100830078125,-0.0205078125,-0.938720703125,-4.1046142578125,-1.617431640625,1.46484375,23.876953125,-2.197265625,-37.646484375
62.40032386779785,1678385721.1108758,0.078369140625,0.015625,-0.82861328125,-1.73187255859375,1.068115234375,0.8087158203125,23.583984375,-2.783203125,-37.060546875
62.60032391548157,1678385721.310876,0.267822265625,0.074951171875,-0.92822265625,-1.94549560546875,4.44793701171875,1.65557861328125,24.0234375,-2.34375,-37.5
62.80032539367676,1678385721.5108774,0.049072265625,0.087158203125,-0.9521484375,-0.1678466796875,0.396728515625,1.45721435546875,24.609375,-1.171875,-37.79296875
63.00032591819763,1678385721.710878,0.153564453125,-0.0400390625,-0.97119140625,1.06048583984375,-0.4425048828125,1.19781494140625,24.169921875,-1.318359375,-36.767578125
63.20032739639282,1678385721.9108794,-0.005615234375,0.058349609375,-0.966064453125,0.091552734375,2.69317626953125,0.93841552734375,25.341796875,-1.904296875,-37.353515625
63.40032768249512,1678385722.1108797,0.052978515625,-0.106689453125,-0.969482421875,-0.14495849609375,7.904052734375,-0.6866455078125,23.583984375,-1.318359375,-39.111328125
63.60032820701599,1678385722.3108802,0.018310546875,0.021728515625,-0.893310546875,0.03814697265625,1.1444091796875,0.69427490234375,24.31640625,-1.7578125,-37.20703125
63.800328731536865,1678385722.5108807,0.125732421875,-0.123291015625,-1.089599609375,-2.93731689453125,2.86102294921875,-1.88446044921875,25.1953125,-0.87890625,-37.5
64.00032925605774,1678385722.7108812,0.047119140625,-0.152587890625,-0.848876953125,-2.87628173828125,9.49859619140625,-0.45013427734375,25.1953125,-2.34375,-37.20703125
64.20032954216003,1678385722.9108815,0.15673828125,0.0205078125,-1.004150390625,-2.78472900390625,7.0648193359375,1.8463134765625,24.609375,-2.63671875,-36.328125
64.4003312587738,1678385723.1108832,0.126708984375,-0.052978515625,-0.840087890625,-2.7923583984375,4.89044189453125,-0.84686279296875,24.755859375,-1.904296875,-37.646484375
64.60033226013184,1678385723.3108842,0.4775390625,-0.0693359375,-0.9755859375,1.52587890625,-6.1492919921875,0.4119873046875,25.48828125,-1.46484375,-37.20703125
64.80033230781555,1678385723.5108843,0.12939453125,0.068115234375,-0.79541015625,0.72479248046875,-12.22991943359375,1.46484375,22.998046875,0.439453125,-37.646484375
65.0003342628479,1678385723.7108862,0.0947265625,-0.01220703125,-0.661865234375,0.75531005859375,-2.8228759765625,0.457763671875,25.1953125,-2.63671875,-36.328125
65.20033383369446,1678385723.9108858,0.06787109375,0.0625,-0.9130859375,0.9613037109375,-1.739501953125,-0.18310546875,25.48828125,-2.05078125,-37.20703125
65.40033435821533,1678385724.1108863,0.356201171875,-0.061279296875,-1.123779296875,-1.12152099609375,-1.03759765625,0.99945068359375,24.31640625,-2.05078125,-36.62109375
65.60033512115479,1678385724.310887,0.218017578125,0.011474609375,-1.211181640625,0.5340576171875,3.44085693359375,0.86212158203125,22.998046875,-1.611328125,-36.181640625
65.80033564567566,1678385724.5108876,0.18115234375,-0.033203125,-1.0771484375,-3.18145751953125,-5.4473876953125,0.38909912109375,25.1953125,-1.171875,-37.5
66.00033664703369,1678385724.7108886,-0.02490234375,0.020263671875,-0.81591796875,-3.88336181640625,2.0904541015625,-0.6103515625,24.755859375,-1.025390625,-36.767578125
66.20033693313599,1678385724.910889,0.077880859375,-0.03125,-0.968994140625,-2.44140625,5.40924072265625,0.90789794921875,24.462890625,-2.783203125,-38.525390625
66.40033769607544,1678385725.1108897,0.092529296875,-0.00439453125,-1.07373046875,-3.082275390625,4.67681884765625,1.48773193359375,25.78125,-1.171875,-38.671875
66.60033845901489,1678385725.3108904,0.08935546875,0.0224609375,-1.16259765625,-3.39508056640625,-2.89154052734375,0.99945068359375,24.609375,-1.7578125,-37.79296875
66.80033826828003,1678385725.5108902,0.168212890625,-0.033935546875,-1.007080078125,-1.41143798828125,0.08392333984375,-0.1678466796875,25.78125,-2.63671875,-36.9140625
67.00033950805664,1678385725.7108915,0.124267578125,0.047607421875,-0.9677734375,2.66265869140625,-9.05609130859375,0.31280517578125,25.48828125,-2.05078125,-38.0859375
67.20034003257751,1678385725.910892,0.047119140625,-0.142333984375,-1.05615234375,-1.0833740234375,-0.8544921875,-0.5645751953125,25.634765625,-1.611328125,-37.060546875
67.40034127235413,1678385726.1108932,0.195556640625,-0.008544921875,-0.979736328125,-3.2806396484375,10.1776123046875,0.41961669921875,26.220703125,-1.025390625,-37.353515625
67.6003429889679,1678385726.310895,0.049072265625,-0.09228515625,-0.950439453125,-3.47137451171875,0.1983642578125,0.93841552734375,25.78125,-1.171875,-37.20703125
67.80034351348877,1678385726.5108955,0.1513671875,0.013427734375,-0.7587890625,3.875732421875,-2.4566650390625,1.93023681640625,24.462890625,-1.611328125,-36.767578125
68.00034403800964,1678385726.710896,0.27197265625,-0.045654296875,-0.82421875,3.173828125,3.3721923828125,1.60980224609375,26.220703125,-1.318359375,-37.060546875
68.20034527778625,1678385726.9108973,0.161376953125,-0.06201171875,-1.000244140625,-3.04412841796875,1.0986328125,0.48828125,26.513671875,-1.318359375,-36.474609375
68.40034580230713,1678385727.1108978,0.47998046875,0.0791015625,-1.060546875,0.518798828125,-10.1318359375,2.166748046875,25.1953125,-2.34375,-36.9140625
68.60034680366516,1678385727.3108988,0.222900390625,-0.002685546875,-0.82666015625,1.0833740234375,-2.4871826171875,1.9073486328125,25.927734375,-0.732421875,-36.181640625
68.8003478050232,1678385727.5108998,0.0283203125,-0.05712890625,-1.0791015625,0.579833984375,5.4473876953125,-0.48065185546875,26.3671875,-2.9296875,-37.79296875
69.00034785270691,1678385727.7108998,0.163818359375,-0.00146484375,-1.043701171875,-0.91552734375,-0.16021728515625,1.47247314453125,25.927734375,-2.197265625,-37.646484375
69.20034742355347,1678385727.9108994,0.287353515625,-0.064453125,-0.904541015625,-0.79345703125,0.885009765625,0.20599365234375,25.927734375,-1.904296875,-36.474609375
69.40034818649292,1678385728.1109002,0.328369140625,-0.04833984375,-0.95263671875,-4.92095947265625,-6.6986083984375,1.6326904296875,24.90234375,-1.46484375,-37.5
69.60034823417664,1678385728.3109002,0.046630859375,-0.0302734375,-0.73388671875,-3.73077392578125,3.53240966796875,-1.7547607421875,24.169921875,-1.904296875,-37.939453125
69.80034852027893,1678385728.5109005,0.0400390625,-0.006103515625,-0.9326171875,2.57110595703125,3.8604736328125,-0.74005126953125,25.1953125,-1.7578125,-39.2578125
70.00035047531128,1678385728.7109025,-0.04150390625,0.01513671875,-0.957763671875,0.22125244140625,2.22015380859375,2.0599365234375,26.220703125,-2.197265625,-37.939453125
70.20035123825073,1678385728.9109032,0.29248046875,-0.059814453125,-0.984375,-1.74713134765625,1.68609619140625,0.91552734375,26.220703125,-1.318359375,-38.232421875
70.40035128593445,1678385729.1109033,-0.00439453125,-0.047119140625,-0.843017578125,2.50244140625,2.8533935546875,0.4425048828125,25.341796875,-3.076171875,-38.232421875
70.60035276412964,1678385729.3109047,0.136962890625,0.00537109375,-0.841064453125,-0.32806396484375,1.9683837890625,0.40435791015625,25.048828125,-1.318359375,-38.232421875
70.80035352706909,1678385729.5109055,0.104736328125,-0.039306640625,-1.085693359375,-0.93841552734375,-5.10406494140625,1.40380859375,25.341796875,-1.318359375,-37.060546875
71.00035357475281,1678385729.7109056,0.197265625,0.046142578125,-0.9453125,-0.30517578125,4.14276123046875,0.6866455078125,26.3671875,-2.05078125,-37.5
71.20035409927368,1678385729.910906,0.145751953125,0.057861328125,-0.93212890625,0.69427490234375,3.27301025390625,1.77764892578125,26.513671875,-1.904296875,-37.646484375
71.40035557746887,1678385730.1109076,0.272216796875,-0.008056640625,-0.994384765625,-2.31170654296875,0.6866455078125,3.88336181640625,25.78125,-1.46484375,-38.0859375
71.6003565788269,1678385730.3109086,0.241455078125,-0.0556640625,-0.712890625,1.50299072265625,-3.662109375,0.84686279296875,26.3671875,-2.34375,-36.9140625
71.80035638809204,1678385730.5109084,0.326904296875,0.062255859375,-0.958740234375,-1.28173828125,7.7362060546875,0.80108642578125,26.3671875,-2.9296875,-37.5
72.00035762786865,1678385730.7109096,0.036376953125,0.03759765625,-0.83154296875,0.09918212890625,-8.50677490234375,0.7781982421875,25.634765625,-3.076171875,-37.060546875
72.20035767555237,1678385730.9109097,0.06298828125,-0.046875,-0.907470703125,2.8533935546875,3.22723388671875,1.15966796875,25.634765625,-0.732421875,-36.767578125
72.40035891532898,1678385731.110911,-0.098388671875,-0.042236328125,-0.93310546875,1.739501953125,7.17926025390625,1.0986328125,25.341796875,-2.490234375,-37.353515625
72.60035920143127,1678385731.3109112,0.033935546875,0.004638671875,-0.993896484375,-3.25775146484375,-0.52642822265625,2.5787353515625,25.048828125,-0.439453125,-36.767578125
72.80035924911499,1678385731.5109112,0.214111328125,0.0478515625,-1.35302734375,-3.47900390625,9.0484619140625,0.0152587890625,25.048828125,-1.318359375,-37.353515625
73.0003604888916,1678385731.7109125,0.15283203125,0.07568359375,-0.993896484375,0.14495849609375,4.69970703125,1.82342529296875,25.48828125,-3.22265625,-38.0859375
73.20036101341248,1678385731.910913,0.158447265625,-0.0283203125,-1.097900390625,-1.708984375,4.43267822265625,2.3345947265625,25.1953125,-2.63671875,-38.0859375
73.40036201477051,1678385732.110914,0.305908203125,-0.043212890625,-1.062744140625,0.38909912109375,-0.8392333984375,3.7689208984375,25.78125,-2.05078125,-36.9140625
73.60036253929138,1678385732.3109145,0.135986328125,0.06982421875,-0.846923828125,-1.6021728515625,1.68609619140625,2.41851806640625,26.513671875,-1.318359375,-37.353515625
73.80036234855652,1678385732.5109143,0.235107421875,0.06494140625,-1.033203125,3.33404541015625,-7.91168212890625,1.18255615234375,24.755859375,-2.490234375,-38.232421875
74.00036311149597,1678385732.710915,0.297119140625,0.050048828125,-1.05615234375,-5.56182861328125,0.335693359375,2.12860107421875,26.66015625,-1.7578125,-38.37890625
74.20036435127258,1678385732.9109163,0.334716796875,-0.026611328125,-1.152099609375,0.9613037109375,2.54058837890625,1.36566162109375,25.1953125,-2.34375,-37.5
74.40036487579346,1678385733.1109169,0.130615234375,-0.103271484375,-0.89013671875,-0.54168701171875,-3.3416748046875,0.4730224609375,25.341796875,-2.490234375,-37.646484375
74.60036563873291,1678385733.3109176,0.353759765625,-0.0869140625,-1.0341796875,-2.52532958984375,3.59344482421875,1.70135498046875,24.755859375,-2.783203125,-38.525390625
74.80036640167236,1678385733.5109184,-0.047119140625,-0.018798828125,-0.85546875,-1.54876708984375,0.762939453125,-1.38092041015625,24.609375,-2.63671875,-38.0859375
75.00036692619324,1678385733.710919,0.1083984375,-0.053466796875,-0.972412109375,-1.6021728515625,0.2593994140625,-0.05340576171875,25.1953125,-2.05078125,-36.328125
75.20036768913269,1678385733.9109197,0.1162109375,-0.00390625,-0.937255859375,-0.1983642578125,-2.6397705078125,1.5106201171875,25.1953125,-2.34375,-37.79296875
75.40036821365356,1678385734.1109202,0.127685546875,-0.071533203125,-0.98876953125,0.518798828125,-1.01470947265625,1.22833251953125,25.634765625,-1.904296875,-38.232421875
75.60036945343018,1678385734.3109214,0.1220703125,-0.03173828125,-1.02978515625,-4.61578369140625,0.9918212890625,3.814697265625,26.806640625,-1.025390625,-38.818359375
75.80037021636963,1678385734.5109222,0.164306640625,0.080810546875,-0.926513671875,1.0528564453125,2.43377685546875,2.0294189453125,25.927734375,-1.904296875,-37.939453125
76.00037121772766,1678385734.7109232,0.36083984375,0.021240234375,-1.13671875,1.07574462890625,7.01141357421875,1.44195556640625,25.48828125,-2.05078125,-38.0859375
76.20037198066711,1678385734.910924,0.15966796875,0.091796875,-1.1494140625,1.10626220703125,0.83160400390625,1.50299072265625,25.48828125,-2.63671875,-37.5
76.40037322044373,1678385735.1109252,0.087646484375,-0.027587890625,-0.968017578125,5.828857421875,-0.08392333984375,1.41143798828125,26.66015625,-1.171875,-37.5
76.60037326812744,1678385735.3109252,0.308837890625,0.110595703125,-0.918701171875,4.058837890625,1.2969970703125,1.9683837890625,26.66015625,-1.171875,-38.37890625
76.80037426948547,1678385735.5109262,0.2197265625,-0.012451171875,-0.818359375,2.2430419921875,-3.1585693359375,1.40380859375,25.048828125,-2.197265625,-37.060546875
77.0003764629364,1678385735.7109284,0.06005859375,-0.032470703125,-0.98095703125,-3.8299560546875,2.35748291015625,1.800537109375,25.48828125,-2.34375,-37.5
77.20037722587585,1678385735.9109292,0.0546875,0.015380859375,-0.806396484375,-5.859375,-7.05718994140625,1.617431640625,25.78125,-0.87890625,-37.20703125
77.40037870407104,1678385736.1109307,0.129638671875,-0.0654296875,-0.956787109375,-3.02886962890625,6.4849853515625,1.59454345703125,24.90234375,-2.05078125,-36.62109375
77.60037899017334,1678385736.310931,0.0400390625,0.017333984375,-1.02099609375,-3.27301025390625,5.4931640625,1.54876708984375,25.48828125,-2.05078125,-38.37890625
77.80038046836853,1678385736.5109324,-0.038818359375,0.065185546875,-0.947021484375,-1.45721435546875,4.57000732421875,0.640869140625,24.90234375,-2.34375,-38.0859375
78.0003809928894,1678385736.710933,0.0947265625,0.024169921875,-1.162109375,-2.0904541015625,6.18743896484375,1.59454345703125,25.78125,-1.46484375,-37.5
78.20038151741028,1678385736.9109335,-0.08984375,-0.0390625,-0.822998046875,-2.8839111328125,-8.18634033203125,-0.25177001953125,25.78125,-2.05078125,-38.671875
78.40038180351257,1678385737.1109338,0.005859375,-0.05029296875,-0.8955078125,-6.2713623046875,1.5411376953125,0.72479248046875,24.31640625,-1.7578125,-38.0859375
78.60038304328918,1678385737.310935,-0.0068359375,-0.11376953125,-1.0908203125,-3.204345703125,-1.89208984375,1.373291015625,24.609375,-2.05078125,-36.9140625
78.80038380622864,1678385737.5109358,0.094482421875,0.046630859375,-1.087890625,0.640869140625,0.99945068359375,2.1209716796875,25.927734375,-2.197265625,-37.939453125
79.00038409233093,1678385737.710936,-0.072509765625,0.101318359375,-0.938232421875,-2.75421142578125,-1.33514404296875,1.41143798828125,25.634765625,-1.318359375,-37.939453125
79.20038414001465,1678385737.910936,0.1630859375,0.123291015625,-0.94287109375,-1.0223388671875,0.35858154296875,2.22015380859375,23.73046875,-2.05078125,-37.79296875
79.40038514137268,1678385738.110937,0.234375,-0.018798828125,-0.96875,3.7689208984375,-2.5634765625,3.28826904296875,25.1953125,-0.29296875,-38.0859375
79.60038590431213,1678385738.310938,0.004638671875,-0.01318359375,-0.80810546875,-1.861572265625,2.35748291015625,1.9683837890625,25.634765625,-2.783203125,-38.232421875
79.80038785934448,1678385738.5109398,0.225830078125,0.06640625,-0.80517578125,0.05340576171875,-5.4779052734375,3.66973876953125,23.583984375,-2.783203125,-37.353515625
80.00038862228394,1678385738.7109406,0.134033203125,-0.030029296875,-1.066162109375,-2.2125244140625,6.91986083984375,4.3487548828125,25.48828125,-1.46484375,-36.9140625
80.20038986206055,1678385738.9109418,0.2138671875,0.113037109375,-0.87646484375,-0.946044921875,-8.81195068359375,5.63812255859375,25.1953125,-0.87890625,-37.79296875
80.40039038658142,1678385739.1109424,0.22216796875,0.101806640625,-0.912109375,-0.19073486328125,-3.631591796875,3.68499755859375,24.31640625,-2.9296875,-38.0859375
80.6003909111023,1678385739.310943,0.186279296875,0.05078125,-0.9453125,-1.708984375,-5.16510009765625,4.32586669921875,25.634765625,-1.904296875,-37.353515625
80.80039191246033,1678385739.510944,0.390380859375,0.171630859375,-1.336181640625,-1.06048583984375,-0.335693359375,6.28662109375,24.609375,-1.46484375,-38.0859375
81.00039219856262,1678385739.7109442,0.1796875,0.090576171875,-0.818359375,-0.96893310546875,-0.1678466796875,4.608154296875,24.31640625,-1.171875,-37.20703125
81.20039200782776,1678385739.910944,0.23291015625,0.215087890625,-0.919189453125,1.434326171875,4.14276123046875,5.27191162109375,23.583984375,-1.904296875,-36.767578125
81.40039253234863,1678385740.1109445,0.04443359375,0.013427734375,-0.98095703125,1.22833251953125,7.354736328125,4.33349609375,25.1953125,-1.46484375,-36.9140625
81.60039234161377,1678385740.3109443,0.159912109375,0.02392578125,-0.607177734375,0.28228759765625,-0.05340576171875,3.71551513671875,23.73046875,-1.171875,-37.79296875
81.80039358139038,1678385740.5109456,0.060791015625,0.018798828125,-0.7666015625,-3.0364990234375,7.2174072265625,4.46319580078125,23.14453125,-1.7578125,-36.9140625
82.00039386749268,1678385740.7109458,0.095703125,0.021240234375,-1.15234375,0.64849853515625,6.69097900390625,2.54058837890625,23.876953125,-1.025390625,-37.353515625
82.20039486885071,1678385740.9109468,0.141357421875,0.032958984375,-0.958251953125,0.25177001953125,2.5634765625,3.143310546875,22.412109375,-2.197265625,-37.353515625
82.40039539337158,1678385741.1109474,0.1181640625,0.01171875,-1.011962890625,0.54931640625,5.74493408203125,2.47955322265625,24.90234375,-2.05078125,-37.5
82.60039591789246,1678385741.310948,0.068115234375,0.00927734375,-0.98974609375,-1.82342529296875,1.30462646484375,1.068115234375,25.48828125,-2.34375,-36.9140625
82.80039691925049,1678385741.510949,0.2001953125,-0.032958984375,-0.850341796875,-3.7994384765625,0.31280517578125,1.79290771484375,24.462890625,-1.318359375,-36.767578125
83.00039839744568,1678385741.7109504,0.139404296875,0.01123046875,-0.876953125,-1.556396484375,-0.77056884765625,0.8087158203125,24.31640625,-2.34375,-36.9140625
83.20039963722229,1678385741.9109516,0.1240234375,-0.11474609375,-1.029541015625,-4.99725341796875,-5.66864013671875,0.9765625,24.169921875,-0.732421875,-38.232421875
83.400399684906,1678385742.1109517,0.124267578125,0.053955078125,-1.077392578125,-1.41143798828125,0.79345703125,1.6937255859375,23.73046875,-2.05078125,-37.5
83.60039973258972,1678385742.3109517,0.12841796875,-0.11962890625,-0.846923828125,-2.93731689453125,-3.13568115234375,1.73187255859375,24.609375,-1.46484375,-38.37890625
83.80040073394775,1678385742.5109527,0.11767578125,0.025390625,-0.99853515625,1.129150390625,1.16729736328125,1.24359130859375,23.4375,-1.46484375,-36.62109375
84.00040102005005,1678385742.710953,0.087646484375,-0.08642578125,-0.973876953125,-1.15203857421875,0.7781982421875,1.28936767578125,22.998046875,-1.611328125,-36.767578125
84.20040154457092,1678385742.9109535,0.111083984375,0.023193359375,-1.021484375,-1.77764892578125,2.92205810546875,1.51824951171875,23.291015625,-1.611328125,-38.525390625
84.4004020690918,1678385743.110954,0.164306640625,-0.02783203125,-0.880615234375,0.78582763671875,-6.134033203125,0.96893310546875,24.0234375,-1.171875,-37.79296875
84.60040235519409,1678385743.3109543,-0.0634765625,0.09033203125,-0.720458984375,1.07574462890625,5.43975830078125,3.875732421875,22.55859375,-0.5859375,-37.79296875
84.80040311813354,1678385743.510955,0.134033203125,-0.168212890625,-0.830078125,-2.9296875,-1.13677978515625,0.18310546875,24.90234375,-2.34375,-36.9140625
85.00040435791016,1678385743.7109563,0.049560546875,-0.022216796875,-1.060546875,-8.88824462890625,6.1492919921875,1.4495849609375,25.1953125,-2.05078125,-38.37890625
85.20040464401245,1678385743.9109566,0.15576171875,0.1083984375,-1.013671875,-1.64794921875,3.21197509765625,2.01416015625,23.291015625,-2.197265625,-37.060546875
85.40040564537048,1678385744.1109576,0.03271484375,0.092041015625,-0.78466796875,-3.4332275390625,-0.61798095703125,0.64849853515625,24.31640625,-1.46484375,-37.20703125
85.60040664672852,1678385744.3109586,0.064453125,0.021728515625,-0.845458984375,0.29754638671875,0.06103515625,0.48065185546875,23.583984375,-1.904296875,-38.232421875
85.80040717124939,1678385744.5109591,-0.051513671875,0.02783203125,-0.75830078125,2.105712890625,-1.8768310546875,3.82232666015625,22.705078125,-1.318359375,-38.232421875
86.00040698051453,1678385744.710959,0.3662109375,-0.12451171875,-1.039794921875,-1.15966796875,12.51983642578125,1.62506103515625,23.583984375,-1.904296875,-37.939453125
86.20040726661682,1678385744.9109592,0.220947265625,-0.071533203125,-0.927734375,-5.218505859375,3.59344482421875,3.753662109375,24.609375,-0.5859375,-38.0859375
86.4004077911377,1678385745.1109598,0.065185546875,-0.029296875,-0.869384765625,-0.5950927734375,-3.01361083984375,1.6021728515625,23.291015625,-1.611328125,-38.232421875
86.6004090309143,1678385745.310961,0.111083984375,0.119873046875,-0.947265625,-2.93731689453125,1.59454345703125,1.6937255859375,22.8515625,-1.46484375,-37.79296875
86.80040884017944,1678385745.5109608,0.046142578125,0.061767578125,-1.018310546875,-2.25067138671875,3.73077392578125,0.81634521484375,22.412109375,-0.732421875,-38.232421875
87.00041007995605,1678385745.710962,0.096435546875,-0.063720703125,-0.95849609375,-2.43377685546875,11.41357421875,0.640869140625,23.583984375,-1.611328125,-36.474609375
87.20041012763977,1678385745.910962,0.30810546875,-0.117431640625,-0.8037109375,2.3956298828125,1.31988525390625,0.762939453125,23.14453125,-2.05078125,-37.5
87.40041041374207,1678385746.1109624,0.20556640625,-0.026611328125,-0.9150390625,-3.05938720703125,1.59454345703125,0.00762939453125,24.0234375,-1.46484375,-37.5
87.6004114151001,1678385746.3109634,0.2939453125,0.07763671875,-0.9462890625,0.7171630859375,-8.5601806640625,2.0904541015625,23.291015625,-3.076171875,-36.474609375
87.80041170120239,1678385746.5109637,0.22314453125,0.031005859375,-0.869384765625,1.89971923828125,-2.838134765625,0.64849853515625,22.998046875,-1.318359375,-38.525390625
88.00041151046753,1678385746.7109635,0.14501953125,-0.14599609375,-0.931640625,1.77001953125,-0.46539306640625,0.49591064453125,23.73046875,-2.63671875,-38.0859375
88.20041298866272,1678385746.910965,0.164306640625,-0.00537109375,-0.9287109375,-3.7689208984375,5.7830810546875,2.593994140625,24.0234375,-0.87890625,-37.20703125
88.40041422843933,1678385747.1109662,0.1259765625,0.00830078125,-0.952392578125,4.08172607421875,3.0517578125,0.2593994140625,23.583984375,-1.025390625,-37.060546875
88.60041522979736,1678385747.3109672,0.1005859375,-0.0810546875,-1.16357421875,-1.220703125,13.55743408203125,0.28228759765625,23.583984375,-1.611328125,-37.353515625
88.80041551589966,1678385747.5109675,0.302001953125,0.032958984375,-0.768310546875,-1.41143798828125,-3.8909912109375,2.32696533203125,22.8515625,-0.29296875,-37.20703125
89.00041651725769,1678385747.7109685,0.369140625,-0.130615234375,-0.9267578125,1.97601318359375,-8.148193359375,0.48065185546875,23.876953125,-1.318359375,-38.525390625
89.20041751861572,1678385747.9109695,0.21337890625,-0.088134765625,-1.184326171875,-5.68389892578125,8.06427001953125,1.0223388671875,23.291015625,-1.318359375,-37.646484375
89.4004180431366,1678385748.11097,0.228759765625,-0.05517578125,-0.920654296875,0.091552734375,0.90789794921875,1.30462646484375,23.291015625,-1.611328125,-37.353515625
89.60041832923889,1678385748.3109703,0.145263671875,0.104248046875,-0.97900390625,-1.12152099609375,-2.93731689453125,0.8697509765625,23.291015625,-1.025390625,-38.818359375
89.80041861534119,1678385748.5109706,0.126220703125,0.076904296875,-1.093994140625,0.14495849609375,2.2430419921875,2.06756591796875,24.0234375,-1.171875,-37.79296875
90.00041961669922,1678385748.7109716,0.21337890625,-0.079833984375,-1.084228515625,-1.89208984375,1.64794921875,0.78582763671875,23.876953125,-1.904296875,-38.232421875
90.20042037963867,1678385748.9109724,0.187744140625,-0.042236328125,-0.90673828125,-1.06048583984375,-2.44140625,0.69427490234375,23.876953125,-1.611328125,-37.646484375
90.40042066574097,1678385749.1109726,0.106201171875,-0.02197265625,-0.876220703125,-0.17547607421875,-1.44195556640625,0.5340576171875,24.31640625,-2.05078125,-37.79296875
90.60042190551758,1678385749.310974,0.276123046875,0.0625,-0.9228515625,1.45721435546875,-8.6822509765625,0.90789794921875,25.048828125,-2.197265625,-37.060546875
90.80042386054993,1678385749.5109758,0.19970703125,0.010498046875,-1.026123046875,-3.0059814453125,0.34332275390625,1.0833740234375,24.462890625,-2.197265625,-37.939453125
91.0004243850708,1678385749.7109764,0.033935546875,0.0986328125,-0.8076171875,-1.28936767578125,-4.72259521484375,2.03704833984375,23.4375,-2.05078125,-38.37890625
91.20042538642883,1678385749.9109774,0.188232421875,-0.0166015625,-0.89404296875,1.2664794921875,-1.93023681640625,0.640869140625,23.291015625,-1.611328125,-37.353515625
91.40042686462402,1678385750.1109788,0.01708984375,-0.073486328125,-0.846923828125,-3.53240966796875,0.3814697265625,0.7171630859375,23.583984375,-1.904296875,-37.353515625
91.6004273891449,1678385750.3109794,0.1328125,-0.00927734375,-0.66455078125,1.8310546875,1.22833251953125,0.79345703125,23.4375,-1.46484375,-37.79296875
91.80042791366577,1678385750.51098,0.05810546875,0.049560546875,-0.884521484375,-0.3814697265625,-3.6773681640625,1.28173828125,23.14453125,-0.87890625,-36.62109375
92.0004289150238,1678385750.710981,0.236328125,-0.062744140625,-1.09130859375,0.08392333984375,2.11334228515625,0.9002685546875,23.73046875,-1.46484375,-36.328125
92.200430393219,1678385750.9109824,0.030517578125,0.072509765625,-0.916015625,-1.0223388671875,1.47247314453125,1.8463134765625,23.14453125,-1.171875,-38.96484375
92.40043044090271,1678385751.1109824,0.08544921875,0.0576171875,-1.0146484375,2.50244140625,-2.35748291015625,1.67083740234375,23.14453125,-0.87890625,-37.20703125
92.60043144226074,1678385751.3109834,0.05224609375,0.0185546875,-1.027099609375,1.18255615234375,1.40380859375,1.22833251953125,24.462890625,-1.318359375,-38.525390625
92.80043196678162,1678385751.510984,0.13134765625,-0.01123046875,-0.916748046875,1.91497802734375,1.94549560546875,0.823974609375,23.4375,-1.46484375,-37.79296875
93.00043296813965,1678385751.710985,0.084228515625,-0.013916015625,-1.008544921875,-0.84686279296875,-2.26593017578125,3.84521484375,23.4375,-1.46484375,-37.5
93.2004337310791,1678385751.9109857,0.147216796875,-0.00048828125,-1.1142578125,-1.617431640625,7.110595703125,2.2735595703125,23.583984375,-0.439453125,-37.353515625
93.4004340171814,1678385752.110986,0.249267578125,-0.063232421875,-0.930419921875,-0.2899169921875,2.838134765625,0.89263916015625,22.998046875,-0.146484375,-37.939453125
93.60043501853943,1678385752.310987,0.22900390625,0.048583984375,-0.89404296875,-3.0517578125,-8.2855224609375,0.81634521484375,24.755859375,-1.611328125,-37.646484375
93.80043625831604,1678385752.5109882,0.20068359375,0.0458984375,-1.11328125,-0.67138671875,-1.50299072265625,2.40325927734375,24.462890625,-1.025390625,-38.525390625
94.0004370212555,1678385752.710989,0.172607421875,-0.0498046875,-0.960205078125,-3.16619873046875,4.5623779296875,1.30462646484375,22.412109375,-2.197265625,-36.767578125
94.20043683052063,1678385752.9109888,0.265625,0.015380859375,-0.961181640625,-3.021240234375,1.2054443359375,2.13623046875,22.119140625,-2.783203125,-36.474609375
94.40043807029724,1678385753.11099,0.19580078125,0.09619140625,-0.87158203125,-0.46539306640625,0.98419189453125,2.55584716796875,22.119140625,-1.025390625,-38.232421875
94.60043835639954,1678385753.3109903,0.041015625,0.004638671875,-0.968994140625,0.79345703125,3.83758544921875,2.0751953125,23.291015625,-1.318359375,-37.646484375
94.80043911933899,1678385753.510991,0.08984375,-0.003173828125,-0.922119140625,-2.76947021484375,0.6103515625,3.02886962890625,22.265625,0.29296875,-37.20703125
95.0004403591156,1678385753.7109923,0.22607421875,0.0458984375,-0.9404296875,-0.00762939453125,2.12860107421875,2.70843505859375,23.14453125,-2.34375,-38.96484375
95.20044088363647,1678385753.9109929,0.234375,0.0458984375,-0.9833984375,-2.15911865234375,-0.9002685546875,3.7841796875,22.412109375,-1.611328125,-37.939453125
95.40044164657593,1678385754.1109936,0.35595703125,-0.01220703125,-1.13427734375,-3.88336181640625,9.429931640625,5.71441650390625,21.240234375,-3.369140625,-37.353515625
95.60044240951538,1678385754.3109944,0.136962890625,0.03466796875,-0.998291015625,2.0599365234375,0.3814697265625,4.150390625,22.55859375,-2.05078125,-37.5
95.80044412612915,1678385754.510996,0.061767578125,0.041015625,-1.174560546875,-0.7476806640625,10.1776123046875,4.94384765625,23.73046875,-2.34375,-37.5
96.00044441223145,1678385754.7109964,0.010498046875,0.1298828125,-1.114990234375,-1.953125,5.3253173828125,5.615234375,22.55859375,-1.46484375,-36.9140625
96.20044445991516,1678385754.9109964,-0.14697265625,0.078857421875,-0.836669921875,-5.42449951171875,1.4801025390625,4.1351318359375,22.705078125,-1.318359375,-37.353515625
96.40044569969177,1678385755.1109977,-0.00146484375,0.21728515625,-0.916015625,0.30517578125,0.0457763671875,5.096435546875,21.826171875,-1.025390625,-37.646484375
96.60044622421265,1678385755.3109982,0.151611328125,0.10693359375,-1.0048828125,0.6256103515625,1.79290771484375,4.50897216796875,21.240234375,-0.439453125,-38.232421875
96.8004469871521,1678385755.510999,-0.0478515625,0.06005859375,-0.925537109375,-1.79290771484375,5.86700439453125,4.7149658203125,21.240234375,-1.318359375,-37.353515625
97.00044751167297,1678385755.7109995,0.2958984375,-0.06494140625,-0.82861328125,1.10626220703125,-2.50244140625,4.72259521484375,20.21484375,-2.63671875,-36.9140625
97.20044755935669,1678385755.9109995,-0.091796875,0.0712890625,-0.819580078125,-0.4119873046875,4.53948974609375,7.75909423828125,22.55859375,-1.46484375,-37.79296875
97.40044903755188,1678385756.111001,0.32958984375,0.03759765625,-0.8388671875,-1.312255859375,-2.64739990234375,4.20379638671875,21.97265625,-1.46484375,-37.5
97.60044956207275,1678385756.3110015,-0.030517578125,0.140625,-0.791015625,-0.22125244140625,1.2664794921875,3.692626953125,20.361328125,-1.611328125,-35.595703125
97.80045008659363,1678385756.511002,0.37451171875,0.10791015625,-0.892333984375,-0.7171630859375,1.54876708984375,5.2490234375,20.361328125,-0.439453125,-36.474609375
98.00045037269592,1678385756.7110023,0.290283203125,0.001953125,-0.878173828125,2.5177001953125,-2.52532958984375,4.40216064453125,21.240234375,-1.611328125,-37.060546875
98.20045137405396,1678385756.9110034,0.163818359375,0.034912109375,-1.001220703125,4.0283203125,-3.79180908203125,4.87518310546875,20.5078125,0.0,-38.37890625
98.40045142173767,1678385757.1110034,0.0556640625,0.0478515625,-1.047607421875,-4.15802001953125,4.90570068359375,5.08880615234375,19.921875,0.0,-38.96484375
98.60045313835144,1678385757.311005,0.16357421875,0.080078125,-0.984130859375,-0.885009765625,3.19671630859375,4.79888916015625,18.75,-2.9296875,-37.79296875
98.80045413970947,1678385757.511006,0.061767578125,0.1630859375,-0.8125,-1.983642578125,-2.0751953125,2.86102294921875,20.80078125,-1.171875,-38.671875
99.00045442581177,1678385757.7110064,0.21240234375,0.01025390625,-0.971923828125,0.6256103515625,2.3193359375,2.26593017578125,21.240234375,-1.904296875,-36.181640625
99.20045447349548,1678385757.9110065,0.264404296875,-0.010498046875,-0.852294921875,-1.6937255859375,1.59454345703125,2.8076171875,19.921875,-1.7578125,-37.79296875
99.40045523643494,1678385758.1110072,0.126708984375,0.0546875,-1.14599609375,-2.20489501953125,1.6326904296875,3.448486328125,20.80078125,-2.34375,-36.328125
99.60045599937439,1678385758.311008,0.156005859375,0.0517578125,-0.969970703125,-0.5950927734375,0.11444091796875,2.25830078125,19.482421875,-2.490234375,-37.353515625
99.80045652389526,1678385758.5110085,0.112548828125,0.05517578125,-0.81884765625,-1.51824951171875,-4.87518310546875,2.22015380859375,20.21484375,-1.171875,-38.0859375
100.0004575252533,1678385758.7110095,0.327392578125,-0.0205078125,-1.08837890625,-0.23651123046875,3.7078857421875,1.76239013671875,18.896484375,-1.904296875,-37.939453125
100.20045876502991,1678385758.9110107,0.19384765625,-0.0283203125,-1.030517578125,0.28228759765625,4.52423095703125,0.2288818359375,20.947265625,-0.439453125,-37.939453125
100.40046000480652,1678385759.111012,-0.090087890625,0.004638671875,-0.810302734375,2.4261474609375,4.57763671875,-1.41143798828125,19.921875,-1.7578125,-37.79296875
100.60046052932739,1678385759.3110125,-0.1533203125,-0.05859375,-0.87646484375,-1.48773193359375,-1.220703125,-2.0751953125,19.189453125,-1.025390625,-37.060546875
100.80046248435974,1678385759.5110145,0.203857421875,-0.0439453125,-0.890869140625,-3.80706787109375,4.70733642578125,1.80816650390625,20.80078125,-0.29296875,-36.9140625
101.00046253204346,1678385759.7110145,0.0166015625,-0.0205078125,-1.03515625,0.946044921875,3.509521484375,-1.708984375,19.775390625,-3.369140625,-38.232421875
101.2004623413086,1678385759.9110143,0.173583984375,-0.052001953125,-0.86181640625,1.57928466796875,-1.09100341796875,-2.2430419921875,20.5078125,-0.87890625,-38.671875
101.40046381950378,1678385760.1110158,0.15966796875,-0.118408203125,-1.016845703125,-4.058837890625,6.32476806640625,-1.22833251953125,20.068359375,-1.025390625,-39.111328125
101.60046362876892,1678385760.3110156,0.196044921875,-0.109375,-0.968017578125,-5.7220458984375,-0.3509521484375,-1.556396484375,22.55859375,0.0,-37.20703125
101.80046510696411,1678385760.511017,0.15869140625,-0.0205078125,-0.929443359375,1.068115234375,1.8157958984375,-2.28118896484375,22.412109375,-0.732421875,-38.232421875
102.00046682357788,1678385760.7110188,0.118408203125,-0.0419921875,-0.9326171875,0.1678466796875,4.4097900390625,-2.06756591796875,21.38671875,-0.87890625,-39.84375
102.20046758651733,1678385760.9110196,0.212890625,-0.0478515625,-1.04736328125,2.74658203125,4.18853759765625,-1.22833251953125,22.119140625,-5.419921875,-40.283203125
102.40046739578247,1678385761.1110194,0.080322265625,-0.09619140625,-1.127685546875,-0.518798828125,1.91497802734375,-2.46429443359375,20.21484375,-6.73828125,-36.9140625
102.60046887397766,1678385761.3110209,0.0263671875,-0.040283203125,-0.9345703125,-2.05230712890625,-2.6397705078125,-2.3956298828125,20.5078125,-6.15234375,-34.27734375
102.80046916007996,1678385761.5110211,0.423095703125,-0.0859375,-1.025146484375,1.495361328125,-1.7242431640625,-1.80816650390625,22.412109375,-0.439453125,-32.958984375
103.00047039985657,1678385761.7110224,0.249755859375,-0.01953125,-0.909423828125,-0.66375732421875,-6.37054443359375,-2.61688232421875,22.119140625,0.146484375,-35.595703125
103.20047163963318,1678385761.9110236,0.2421875,-0.208740234375,-1.0615234375,-2.02178955078125,5.3558349609375,-4.0740966796875,21.826171875,-0.439453125,-36.767578125
103.40047192573547,1678385762.111024,0.146484375,0.068603515625,-0.9912109375,1.64794921875,2.4261474609375,-0.3204345703125,22.55859375,0.87890625,-38.0859375
103.60047364234924,1678385762.3110256,0.2080078125,0.01123046875,-0.990478515625,1.64031982421875,1.312255859375,-1.8157958984375,20.80078125,-1.171875,-38.37890625
103.80047369003296,1678385762.5110257,0.06982421875,-0.187744140625,-1.17138671875,-1.38092041015625,2.52532958984375,-2.288818359375,22.412109375,-1.904296875,-38.818359375
104.00047564506531,1678385762.7110276,0.14208984375,-0.0771484375,-1.037353515625,-4.2266845703125,0.6561279296875,-3.71551513671875,22.119140625,-2.197265625,-39.404296875
104.2004771232605,1678385762.911029,0.157958984375,-0.029296875,-0.800048828125,5.48553466796875,-3.6163330078125,-2.54058837890625,22.265625,-2.05078125,-38.96484375
104.40047717094421,1678385763.1110291,0.2587890625,-0.0888671875,-0.951904296875,3.2958984375,-7.62939453125,-2.14385986328125,22.998046875,-2.490234375,-39.111328125
104.6004786491394,1678385763.3110306,0.266845703125,-0.084716796875,-1.050537109375,3.71551513671875,-1.5411376953125,-1.74713134765625,22.265625,-2.05078125,-38.0859375
104.80047917366028,1678385763.5110312,0.340576171875,-0.069091796875,-1.064697265625,0.2593994140625,3.73077392578125,-1.800537109375,24.755859375,-1.611328125,-37.646484375
105.00047945976257,1678385763.7110314,0.332275390625,-0.026123046875,-1.14453125,2.899169921875,-6.50787353515625,-0.74005126953125,23.4375,-2.63671875,-38.0859375
105.20048093795776,1678385763.911033,0.110107421875,0.032958984375,-1.01416015625,-0.5340576171875,1.861572265625,-0.3814697265625,21.826171875,-2.783203125,-37.646484375
105.40048146247864,1678385764.1110334,-0.078125,-0.063720703125,-0.822509765625,1.3885498046875,4.53948974609375,-1.38092041015625,23.14453125,-1.46484375,-38.96484375
105.60048294067383,1678385764.311035,0.107177734375,-0.0390625,-0.88232421875,-0.06866455078125,2.5634765625,-1.739501953125,22.705078125,-2.783203125,-37.646484375
105.80048394203186,1678385764.511036,0.110107421875,-0.018798828125,-1.141357421875,-1.5411376953125,5.340576171875,-0.762939453125,23.4375,-1.7578125,-37.79296875
106.00048613548279,1678385764.711038,0.1240234375,-0.057373046875,-0.817138671875,-5.06591796875,7.0037841796875,-2.86865234375,24.0234375,-1.46484375,-37.20703125
106.20048689842224,1678385764.9110389,0.14697265625,-0.167236328125,-0.544189453125,1.800537109375,-12.99285888671875,-1.068115234375,24.609375,-0.87890625,-36.9140625
106.40048861503601,1678385765.1110406,0.101318359375,-0.087646484375,-0.824951171875,2.22015380859375,-3.0364990234375,-0.6103515625,23.876953125,-2.490234375,-37.646484375
106.6004889011383,1678385765.3110409,0.1123046875,-0.101318359375,-0.891357421875,-2.29644775390625,-3.65447998046875,-0.38909912109375,25.78125,-1.7578125,-38.671875
106.80049014091492,1678385765.511042,0.02587890625,0.028076171875,-1.0625,-2.7313232421875,4.95147705078125,-1.9378662109375,24.31640625,-2.63671875,-36.62109375
107.00049185752869,1678385765.7110438,0.091064453125,-0.079345703125,-1.12451171875,-1.50299072265625,3.0517578125,-1.41143798828125,24.90234375,-0.5859375,-40.13671875
107.20049285888672,1678385765.9110448,0.12353515625,-0.066650390625,-0.883056640625,-2.7008056640625,2.32696533203125,-1.312255859375,24.755859375,-1.318359375,-38.525390625
107.40049314498901,1678385766.1110451,0.082763671875,-0.057861328125,-0.856689453125,2.47955322265625,2.17437744140625,-1.57928466796875,25.48828125,-1.46484375,-38.37890625
107.60049343109131,1678385766.3110454,0.1640625,-0.099853515625,-1.152587890625,-1.77764892578125,3.79180908203125,-1.41143798828125,24.169921875,-0.732421875,-39.111328125
107.80049443244934,1678385766.5110464,0.147216796875,-0.154296875,-1.041015625,0.64849853515625,-1.59454345703125,-0.457763671875,23.876953125,-0.732421875,-37.939453125
108.00049591064453,1678385766.711048,0.084228515625,-0.03369140625,-1.00390625,-0.60272216796875,2.09808349609375,0.06103515625,24.0234375,-1.46484375,-36.62109375
108.20049595832825,1678385766.911048,0.130859375,-0.009033203125,-1.048095703125,1.91497802734375,7.07244873046875,-0.41961669921875,24.31640625,-2.63671875,-38.0859375
108.40049695968628,1678385767.111049,0.16259765625,0.017822265625,-1.1015625,-0.1220703125,2.28118896484375,-0.2899169921875,24.31640625,-1.7578125,-36.328125
108.60049700737,1678385767.311049,0.0751953125,0.003173828125,-0.944091796875,0.89263916015625,2.86865234375,-1.36566162109375,22.998046875,-1.611328125,-38.818359375
108.80049800872803,1678385767.51105,0.045654296875,-0.005859375,-0.945556640625,-0.69427490234375,4.119873046875,-0.091552734375,24.755859375,-2.490234375,-39.111328125
109.00049877166748,1678385767.7110507,0.09033203125,0.042236328125,-0.909912109375,1.007080078125,-0.26702880859375,0.091552734375,24.462890625,-1.611328125,-39.404296875
109.20049953460693,1678385767.9110515,0.152099609375,-0.062744140625,-0.87646484375,-2.410888671875,-1.82342529296875,-0.5340576171875,25.048828125,-1.904296875,-38.525390625
109.40049982070923,1678385768.1110518,0.25048828125,0.02783203125,-1.034423828125,1.53350830078125,0.96893310546875,0.48828125,24.90234375,-1.7578125,-38.0859375
109.60050058364868,1678385768.3110526,0.149658203125,-0.060302734375,-1.029541015625,0.0762939453125,0.1678466796875,-0.1678466796875,24.31640625,-0.87890625,-37.5
109.80050086975098,1678385768.5110528,0.084716796875,-0.060302734375,-1.049072265625,0.40435791015625,-0.31280517578125,1.68609619140625,25.341796875,-0.146484375,-38.232421875
110.00050187110901,1678385768.7110538,0.07080078125,-0.06103515625,-0.981689453125,2.1209716796875,1.312255859375,0.1373291015625,24.31640625,-2.05078125,-37.5
110.20050287246704,1678385768.9110548,0.183837890625,0.053955078125,-1.02197265625,0.83160400390625,-3.79180908203125,2.5787353515625,23.73046875,-3.22265625,-38.37890625
110.40050411224365,1678385769.111056,0.17138671875,0.02197265625,-0.94921875,-7.4920654296875,-2.4566650390625,0.946044921875,25.1953125,-1.171875,-38.671875
110.6005048751831,1678385769.3110569,0.24462890625,-0.127685546875,-0.955322265625,-2.29644775390625,3.80706787109375,0.25177001953125,22.705078125,-0.439453125,-37.646484375
110.80050611495972,1678385769.511058,0.136962890625,-0.017333984375,-0.865478515625,-4.46319580078125,0.09918212890625,0.55694580078125,23.4375,-2.34375,-38.37890625
111.00050663948059,1678385769.7110586,-0.009521484375,-0.091064453125,-1.034912109375,-2.41851806640625,1.38092041015625,1.15966796875,22.705078125,-2.783203125,-38.525390625
111.20050644874573,1678385769.9110584,-0.02001953125,0.018798828125,-0.96240234375,2.5634765625,2.593994140625,1.3885498046875,23.291015625,-1.318359375,-37.353515625
111.4005069732666,1678385770.111059,0.171630859375,-0.031494140625,-1.15380859375,-2.44903564453125,5.6610107421875,1.6632080078125,24.169921875,-1.611328125,-37.646484375
111.60050773620605,1678385770.3110597,0.21044921875,-0.03466796875,-0.8935546875,-0.4119873046875,2.26593017578125,1.74713134765625,24.462890625,-1.904296875,-37.353515625
111.80050921440125,1678385770.5110612,0.402587890625,0.0234375,-0.975341796875,-5.37109375,-1.007080078125,1.70135498046875,22.998046875,-0.439453125,-37.646484375
112.00051045417786,1678385770.7110624,0.046142578125,-0.0048828125,-1.095458984375,-4.6844482421875,5.82122802734375,1.28936767578125,24.0234375,-1.46484375,-37.5
112.20051097869873,1678385770.911063,0.14501953125,0.07958984375,-0.99462890625,-0.3509521484375,2.12860107421875,1.312255859375,23.73046875,-1.46484375,-37.20703125
112.40051293373108,1678385771.111065,0.3408203125,-0.071533203125,-1.083740234375,-1.28173828125,2.105712890625,0.46539306640625,23.876953125,-1.025390625,-37.353515625
112.60051250457764,1678385771.3110645,0.082275390625,0.070068359375,-0.874755859375,-3.27301025390625,-3.25775146484375,1.2054443359375,25.927734375,-2.783203125,-38.232421875
112.80051279067993,1678385771.5110648,0.4755859375,-0.113525390625,-1.14111328125,-0.8544921875,18.1884765625,0.77056884765625,25.341796875,-1.025390625,-37.939453125
113.00051307678223,1678385771.711065,0.174072265625,0.027587890625,-1.130126953125,-0.37384033203125,4.29534912109375,1.06048583984375,23.876953125,-2.783203125,-36.767578125
113.20051431655884,1678385771.9110663,0.176513671875,0.05126953125,-0.903076171875,-0.8392333984375,-2.8076171875,1.77001953125,25.927734375,-0.732421875,-36.767578125
113.40051603317261,1678385772.111068,0.1357421875,-0.035400390625,-1.148193359375,1.0223388671875,3.9520263671875,1.0223388671875,25.1953125,-0.5859375,-38.0859375
113.60051703453064,1678385772.311069,0.1796875,0.00244140625,-1.36962890625,-0.30517578125,3.8299560546875,1.25885009765625,25.927734375,-2.197265625,-37.646484375
113.80051803588867,1678385772.51107,0.337646484375,-0.00390625,-0.876708984375,-2.9449462890625,-0.58746337890625,0.9307861328125,25.1953125,-2.05078125,-38.671875
114.00051951408386,1678385772.7110715,0.216796875,-0.079345703125,-0.999267578125,-2.044677734375,-2.2125244140625,-0.9002685546875,25.048828125,-1.318359375,-37.353515625
114.20052075386047,1678385772.9110727,0.14794921875,0.044677734375,-0.901123046875,-1.3275146484375,-9.552001953125,0.8697509765625,25.1953125,-0.5859375,-37.5
114.40052127838135,1678385773.1110733,0.20166015625,-0.030517578125,-1.04052734375,0.701904296875,-12.1612548828125,1.800537109375,24.755859375,-0.146484375,-36.767578125
114.60052251815796,1678385773.3110745,0.354736328125,0.03955078125,-1.07421875,0.26702880859375,2.99072265625,2.471923828125,25.48828125,-1.171875,-38.0859375
114.80052280426025,1678385773.5110748,0.216064453125,0.081787109375,-0.864013671875,2.655029296875,1.8768310546875,2.105712890625,24.755859375,-1.611328125,-38.232421875
115.00052380561829,1678385773.7110758,0.17138671875,-0.046630859375,-1.0390625,1.9073486328125,3.13568115234375,2.57110595703125,24.609375,-0.87890625,-36.9140625
115.20052480697632,1678385773.9110768,0.11328125,0.01171875,-0.876708984375,-1.922607421875,5.9967041015625,2.29644775390625,26.953125,-2.05078125,-37.79296875
115.40052485466003,1678385774.1110768,0.088623046875,0.012939453125,-0.95263671875,-3.082275390625,2.0904541015625,1.27410888671875,26.513671875,-1.025390625,-38.818359375
115.60052609443665,1678385774.311078,-0.080322265625,0.013916015625,-0.81591796875,1.15203857421875,-3.173828125,0.0,26.3671875,-1.7578125,-38.96484375
115.80052661895752,1678385774.5110786,0.066650390625,0.029052734375,-0.79296875,-0.60272216796875,-3.4637451171875,1.19781494140625,25.78125,-3.515625,-38.37890625
116.0005271434784,1678385774.7110791,0.004150390625,0.0302734375,-0.98974609375,2.197265625,3.53240966796875,1.800537109375,26.220703125,-2.490234375,-37.939453125
116.20052790641785,1678385774.91108,-0.046875,0.045654296875,-1.0380859375,-1.8463134765625,0.14495849609375,1.54876708984375,23.876953125,-3.076171875,-37.060546875
116.40052819252014,1678385775.1110802,0.086669921875,-0.03515625,-1.064453125,-1.93023681640625,2.99835205078125,0.55694580078125,24.169921875,-1.904296875,-37.646484375
116.60052847862244,1678385775.3110805,0.1025390625,-0.04443359375,-1.014404296875,-1.13677978515625,0.4425048828125,1.0833740234375,23.14453125,-3.22265625,-36.62109375
116.80052900314331,1678385775.511081,-0.169921875,-0.045654296875,-1.054443359375,0.3509521484375,1.74713134765625,-0.40435791015625,23.14453125,-1.7578125,-36.03515625
117.00053000450134,1678385775.711082,0.187255859375,0.010009765625,-0.948974609375,-1.5411376953125,0.99945068359375,0.79345703125,24.755859375,-0.732421875,-37.646484375
117.2005307674408,1678385775.9110827,0.070068359375,-0.00341796875,-0.896484375,-1.0833740234375,-1.8157958984375,0.38909912109375,24.0234375,-0.29296875,-37.5
117.40053200721741,1678385776.111084,0.28466796875,-0.005126953125,-1.04248046875,0.58746337890625,0.35858154296875,0.5035400390625,24.462890625,-1.318359375,-37.646484375
117.60053253173828,1678385776.3110845,0.14453125,-0.0498046875,-1.03466796875,-3.2958984375,8.24737548828125,0.0,26.07421875,0.29296875,-38.671875
117.80053305625916,1678385776.511085,0.25439453125,-0.044921875,-0.866455078125,-0.96893310546875,-7.39288330078125,0.54168701171875,25.48828125,-1.171875,-38.671875
118.00053310394287,1678385776.711085,0.04345703125,0.03759765625,-0.899169921875,0.08392333984375,0.457763671875,0.3814697265625,26.220703125,-1.611328125,-39.404296875
118.2005341053009,1678385776.911086,0.05224609375,0.085205078125,-0.937255859375,3.27301025390625,-3.448486328125,0.32806396484375,27.392578125,-1.025390625,-39.111328125
118.40053796768188,1678385777.11109,0.0751953125,-0.052490234375,-1.032470703125,-1.59454345703125,2.74658203125,0.7171630859375,27.83203125,-1.7578125,-38.0859375
118.60053944587708,1678385777.3110914,0.089111328125,-0.075439453125,-0.86181640625,-2.23541259765625,-2.0751953125,-0.762939453125,27.83203125,-2.9296875,-38.96484375
118.80054092407227,1678385777.511093,0.093017578125,-0.022705078125,-1.001708984375,2.685546875,1.4495849609375,0.152587890625,27.24609375,-2.05078125,-38.0859375
119.00054240226746,1678385777.7110944,0.07080078125,-0.02587890625,-0.851318359375,-3.07464599609375,-3.85284423828125,0.08392333984375,28.125,-2.63671875,-39.84375
119.20054340362549,1678385777.9110954,0.018310546875,0.01806640625,-0.981689453125,0.96893310546875,-6.64520263671875,-0.05340576171875,27.099609375,-2.490234375,-37.646484375
119.4005446434021,1678385778.1110966,-0.11962890625,-0.008056640625,-1.021240234375,1.22833251953125,4.6844482421875,0.48828125,26.806640625,-2.197265625,-38.232421875
119.60054516792297,1678385778.3110971,0.247802734375,0.004150390625,-1.078857421875,-1.10626220703125,-1.01470947265625,1.31988525390625,27.24609375,-2.63671875,-38.37890625
119.80054664611816,1678385778.5110986,0.060791015625,0.009033203125,-0.962890625,-1.9073486328125,-2.9449462890625,1.800537109375,25.341796875,-2.783203125,-38.232421875
120.00054693222046,1678385778.711099,0.22412109375,0.009521484375,-0.910400390625,-0.518798828125,-4.76837158203125,-0.40435791015625,25.634765625,-2.783203125,-38.232421875
120.20054721832275,1678385778.9110992,0.10888671875,-0.0615234375,-0.938232421875,-2.62451171875,0.7171630859375,-0.38909912109375,25.341796875,-0.732421875,-36.474609375
120.40054750442505,1678385779.1110995,0.124755859375,-0.01953125,-0.983154296875,-0.4425048828125,1.2969970703125,0.274658203125,24.755859375,-1.318359375,-38.232421875
120.60054731369019,1678385779.3110993,0.06396484375,-0.014892578125,-0.88037109375,0.49591064453125,4.08172607421875,1.89971923828125,25.48828125,-1.7578125,-38.671875
120.80054759979248,1678385779.5110996,-0.083251953125,-0.00634765625,-0.907958984375,0.4425048828125,3.35693359375,0.244140625,26.513671875,-1.904296875,-37.939453125
121.00054812431335,1678385779.7111,0.111572265625,-0.050048828125,-0.94970703125,-2.3956298828125,-5.9814453125,-0.18310546875,26.513671875,-3.369140625,-38.525390625
121.20054841041565,1678385779.9111004,0.1259765625,0.018798828125,-0.892333984375,1.953125,-4.28009033203125,-1.2969970703125,26.3671875,-2.63671875,-36.9140625
121.40054845809937,1678385780.1111004,0.17041015625,-0.0634765625,-0.97607421875,4.18853759765625,0.51116943359375,-0.57220458984375,27.83203125,-2.05078125,-39.55078125
121.60054993629456,1678385780.311102,0.010498046875,-0.021240234375,-0.958740234375,-1.48773193359375,1.129150390625,-0.41961669921875,27.685546875,-1.611328125,-37.353515625
121.80055022239685,1678385780.5111022,0.105712890625,0.01513671875,-1.026123046875,-0.09918212890625,-1.6632080078125,-0.7171630859375,26.953125,-0.5859375,-37.5
122.00055193901062,1678385780.711104,0.035400390625,0.019287109375,-0.84130859375,1.46484375,-0.091552734375,-1.40380859375,27.685546875,-1.904296875,-37.060546875
122.20055294036865,1678385780.911105,0.03857421875,-0.017333984375,-0.927490234375,-2.9144287109375,-2.3651123046875,-1.953125,26.66015625,-2.34375,-37.79296875
122.40055346488953,1678385781.1111054,0.00634765625,-0.030517578125,-0.96484375,-0.30517578125,2.76947021484375,-1.46484375,25.927734375,-2.197265625,-36.474609375
122.60055494308472,1678385781.311107,0.14501953125,0.007568359375,-0.963134765625,-1.3427734375,8.0108642578125,-1.3275146484375,25.78125,-2.63671875,-37.79296875
122.80055642127991,1678385781.5111084,0.156005859375,-0.056884765625,-0.973876953125,-1.62506103515625,-1.2969970703125,-0.6866455078125,25.341796875,-1.318359375,-38.232421875
123.00055646896362,1678385781.7111084,0.05029296875,-0.135009765625,-1.025146484375,-1.35040283203125,5.7220458984375,-1.312255859375,26.3671875,-2.63671875,-36.9140625
123.2005569934845,1678385781.911109,0.125732421875,-0.01953125,-0.70947265625,1.88446044921875,3.0364990234375,-1.74713134765625,26.220703125,-2.783203125,-38.232421875
123.40055823326111,1678385782.1111102,0.220947265625,0.025390625,-1.0087890625,-0.6866455078125,3.9215087890625,-1.0986328125,26.66015625,-1.7578125,-38.37890625
123.6005585193634,1678385782.3111105,0.117431640625,0.088134765625,-0.980712890625,-0.31280517578125,3.23486328125,-0.6561279296875,26.66015625,-3.80859375,-36.9140625
123.8005599975586,1678385782.511112,-0.018310546875,0.078857421875,-0.944091796875,-3.45611572265625,3.7841796875,-0.4425048828125,27.392578125,-2.197265625,-37.060546875
124.0005612373352,1678385782.7111132,0.28564453125,-0.072998046875,-0.79931640625,3.85284423828125,-3.41033935546875,-0.274658203125,27.392578125,-2.490234375,-38.232421875
124.2005627155304,1678385782.9111147,-0.09521484375,-0.023681640625,-0.88427734375,1.56402587890625,2.5482177734375,-1.2969970703125,26.806640625,-3.369140625,-38.525390625
124.40056371688843,1678385783.1111157,0.2255859375,0.033935546875,-0.980224609375,-1.739501953125,1.3580322265625,2.46429443359375,26.806640625,-2.783203125,-36.474609375
124.60056352615356,1678385783.3111155,0.182861328125,-0.00341796875,-1.00341796875,-2.6092529296875,3.86810302734375,2.74658203125,26.07421875,-1.46484375,-37.79296875
124.8005645275116,1678385783.5111165,0.276611328125,-0.171142578125,-0.97314453125,-3.37982177734375,2.4871826171875,1.0986328125,26.806640625,-4.541015625,-37.939453125
125.00056552886963,1678385783.7111175,0.199951171875,-0.0791015625,-0.860595703125,-3.25775146484375,-3.24249267578125,1.708984375,26.513671875,-3.076171875,-37.353515625
125.20056533813477,1678385783.9111173,0.019775390625,0.055908203125,-0.909423828125,-3.63922119140625,2.4566650390625,2.5634765625,27.685546875,-3.369140625,-37.939453125
125.40056586265564,1678385784.1111178,0.2216796875,0.109375,-0.982421875,-0.35858154296875,6.79779052734375,4.52423095703125,27.099609375,-3.662109375,-37.646484375
125.60056734085083,1678385784.3111193,0.2060546875,0.039306640625,-0.849609375,-1.83868408203125,-1.10626220703125,4.33349609375,26.3671875,-3.80859375,-37.79296875
125.80056762695312,1678385784.5111196,0.06396484375,0.087890625,-0.94580078125,-4.0435791015625,-5.5084228515625,6.4544677734375,27.392578125,-3.369140625,-37.939453125
126.00056886672974,1678385784.7111208,0.168701171875,0.07568359375,-1.078857421875,-0.08392333984375,5.53131103515625,5.80596923828125,25.341796875,-3.369140625,-37.060546875
126.20057034492493,1678385784.9111223,0.18603515625,0.0576171875,-0.941162109375,-2.1820068359375,0.23651123046875,5.9661865234375,26.3671875,-2.05078125,-37.79296875
126.40056991577148,1678385785.111122,0.1259765625,0.117919921875,-0.968505859375,3.875732421875,3.662109375,5.3863525390625,26.513671875,-2.490234375,-37.939453125
126.60057044029236,1678385785.3111224,0.0654296875,0.03466796875,-1.054931640625,-1.9073486328125,0.28228759765625,5.27191162109375,27.099609375,-2.490234375,-37.353515625
126.80057072639465,1678385785.5111227,0.168212890625,0.037353515625,-0.9326171875,0.57220458984375,1.2054443359375,4.03594970703125,26.3671875,-1.171875,-36.62109375
127.00057244300842,1678385785.7111244,0.206298828125,0.04931640625,-0.90380859375,-1.8157958984375,-2.23541259765625,4.66156005859375,26.806640625,-1.025390625,-37.060546875
127.20057368278503,1678385785.9111257,0.1103515625,0.071044921875,-0.8984375,1.33514404296875,2.3193359375,3.97491455078125,26.806640625,-1.904296875,-37.646484375
127.40057396888733,1678385786.111126,0.094482421875,0.043701171875,-0.886474609375,-0.99945068359375,-2.532958984375,3.265380859375,25.048828125,-1.611328125,-37.939453125
127.60057520866394,1678385786.3111272,0.172119140625,0.027099609375,-1.064697265625,1.09100341796875,0.244140625,3.082275390625,24.90234375,-1.46484375,-38.0859375
127.80057573318481,1678385786.5111277,0.1015625,0.005615234375,-0.9091796875,1.19781494140625,-0.74005126953125,0.8544921875,24.609375,-0.29296875,-38.0859375
128.00057697296143,1678385786.711129,-0.01904296875,0.003662109375,-0.964599609375,-2.9754638671875,1.3580322265625,0.335693359375,24.90234375,0.29296875,-37.20703125
128.2005763053894,1678385786.9111283,0.079833984375,-0.00048828125,-0.974853515625,4.45556640625,-1.48773193359375,-1.12152099609375,25.048828125,-1.318359375,-37.646484375
128.4005777835846,1678385787.1111298,0.024169921875,-0.062255859375,-0.87451171875,-2.14385986328125,4.0740966796875,-0.90789794921875,25.927734375,0.439453125,-38.525390625
128.60057830810547,1678385787.3111303,0.067626953125,-0.02880859375,-0.96728515625,1.48773193359375,0.30517578125,-0.80108642578125,25.78125,-0.29296875,-37.5
128.8005793094635,1678385787.5111313,0.18408203125,0.0068359375,-0.955078125,1.62506103515625,5.01251220703125,-0.8697509765625,23.876953125,-0.439453125,-38.232421875
129.0005807876587,1678385787.7111328,0.0966796875,-0.004150390625,-1.047119140625,-0.8544921875,5.50079345703125,-0.9307861328125,25.048828125,-2.197265625,-36.767578125
129.20058155059814,1678385787.9111335,-0.0078125,-0.00341796875,-1.0126953125,0.457763671875,0.78582763671875,-0.63323974609375,24.755859375,-2.197265625,-37.939453125
129.40058302879333,1678385788.111135,0.130859375,-0.00732421875,-0.94384765625,1.1444091796875,-1.36566162109375,-1.21307373046875,24.31640625,-1.171875,-38.37890625
129.60058403015137,1678385788.311136,0.0341796875,-0.017822265625,-1.0087890625,-0.5340576171875,-2.66265869140625,-0.51116943359375,24.462890625,-1.611328125,-37.939453125
129.80058431625366,1678385788.5111363,0.050537109375,-0.01171875,-0.966796875,-0.31280517578125,-0.579833984375,-0.61798095703125,25.341796875,-1.318359375,-37.060546875
130.00058555603027,1678385788.7111375,0.014404296875,-0.009521484375,-1.060302734375,-0.49591064453125,1.28173828125,-1.27410888671875,24.609375,-1.7578125,-37.20703125
130.20058703422546,1678385788.911139,0.0283203125,0.00048828125,-1.019775390625,0.40435791015625,-2.1209716796875,-0.58746337890625,25.78125,-1.7578125,-37.79296875
130.40058779716492,1678385789.1111398,0.001953125,0.0263671875,-0.96484375,0.11444091796875,1.28173828125,1.9073486328125,24.462890625,-1.611328125,-38.232421875
130.60058784484863,1678385789.3111398,0.111328125,-0.0107421875,-0.973876953125,0.83160400390625,-1.10626220703125,-0.16021728515625,25.48828125,-1.46484375,-37.20703125
130.8005886077881,1678385789.5111406,0.05517578125,0.011474609375,-0.970947265625,0.8544921875,-1.1444091796875,0.6256103515625,26.07421875,-2.05078125,-37.79296875
131.00058913230896,1678385789.711141,0.0224609375,-0.00537109375,-0.951904296875,-1.16729736328125,2.5482177734375,0.9002685546875,25.48828125,-1.46484375,-36.9140625
131.200590133667,1678385789.911142,0.078369140625,-0.013916015625,-1.008544921875,-0.31280517578125,1.22833251953125,0.7781982421875,26.07421875,-2.05078125,-35.44921875
131.40059113502502,1678385790.111143,0.050048828125,0.002685546875,-0.917236328125,-0.3814697265625,3.18145751953125,0.640869140625,26.953125,-2.05078125,-34.86328125
131.6005916595459,1678385790.3111436,0.0859375,0.013916015625,-0.9150390625,0.946044921875,-4.0283203125,1.31988525390625,25.634765625,-1.318359375,-36.767578125
131.8005931377411,1678385790.511145,0.047607421875,-0.024169921875,-1.07275390625,1.129150390625,1.51824951171875,0.92315673828125,25.927734375,-1.611328125,-35.595703125
132.00059509277344,1678385790.711147,0.122802734375,0.02685546875,-0.973388671875,-0.57220458984375,1.0528564453125,1.85394287109375,26.3671875,-2.9296875,-37.20703125
132.2005956172943,1678385790.9111476,0.103515625,0.031005859375,-0.96875,0.41961669921875,-0.16021728515625,0.83160400390625,25.341796875,-3.076171875,-35.009765625
132.40059685707092,1678385791.1111488,0.11474609375,-0.034423828125,-1.00537109375,-1.4495849609375,-0.1678466796875,1.07574462890625,24.609375,-2.9296875,-34.86328125
132.60059809684753,1678385791.31115,0.11181640625,-0.037353515625,-1.026611328125,-1.007080078125,0.8392333984375,0.8087158203125,25.341796875,-5.712890625,-35.009765625
132.80059957504272,1678385791.5111516,-0.037353515625,0.044921875,-1.069091796875,-0.2899169921875,2.70843505859375,0.83160400390625,26.513671875,-3.955078125,-33.837890625
133.0006012916565,1678385791.7111533,0.075927734375,-0.032470703125,-1.013671875,-0.3814697265625,-0.09918212890625,1.24359130859375,26.66015625,-2.34375,-34.27734375
133.2006015777588,1678385791.9111536,0.073486328125,0.003662109375,-0.978759765625,-0.5645751953125,-0.90789794921875,0.87738037109375,27.83203125,-2.9296875,-35.44921875
133.40060186386108,1678385792.1111538,0.055908203125,0.009033203125,-0.968505859375,-0.51116943359375,0.98419189453125,1.373291015625,27.83203125,-2.34375,-35.7421875
133.60060167312622,1678385792.3111537,0.0712890625,0.01708984375,-0.93212890625,-0.81634521484375,-0.8697509765625,1.19781494140625,27.83203125,-2.34375,-35.44921875
133.80060362815857,1678385792.5111556,0.064453125,0.019287109375,-0.953369140625,-0.06866455078125,0.5035400390625,1.12152099609375,27.685546875,-1.904296875,-35.888671875
134.00060367584229,1678385792.7111557,0.02880859375,-0.0283203125,-0.95166015625,-0.946044921875,1.51824951171875,1.50299072265625,27.685546875,-2.490234375,-36.474609375
134.200603723526,1678385792.9111557,0.021728515625,0.00732421875,-0.93212890625,-0.72479248046875,1.79290771484375,1.0833740234375,27.5390625,-1.171875,-36.03515625
134.40060472488403,1678385793.1111567,0.064453125,-0.01220703125,-0.9990234375,-0.41961669921875,2.78472900390625,1.31988525390625,27.978515625,-2.783203125,-36.181640625
134.60060572624207,1678385793.3111577,0.07080078125,-0.009765625,-1.007080078125,-0.31280517578125,2.34222412109375,1.03759765625,25.78125,-2.05078125,-37.20703125
134.80060601234436,1678385793.511158,0.06689453125,-0.014404296875,-0.999267578125,-0.42724609375,1.88446044921875,1.1138916015625,26.513671875,-1.025390625,-36.767578125
135.0006067752838,1678385793.7111588,0.077392578125,-0.012451171875,-1.001708984375,-0.41961669921875,1.67083740234375,0.96893310546875,27.83203125,-1.7578125,-36.9140625
135.20060658454895,1678385793.9111586,0.1005859375,0.014404296875,-1.019287109375,-0.25177001953125,1.8463134765625,0.81634521484375,26.66015625,-1.46484375,-36.62109375
135.4006085395813,1678385794.1111605,0.11865234375,-0.026611328125,-1.015380859375,-0.640869140625,0.823974609375,1.15203857421875,26.953125,-1.7578125,-36.62109375
135.6006097793579,1678385794.3111618,0.115478515625,-0.001220703125,-1.010009765625,-0.89263916015625,1.4190673828125,1.3885498046875,26.220703125,-0.732421875,-36.181640625
135.80061030387878,1678385794.5111623,0.125,-0.00732421875,-1.014404296875,-0.54168701171875,1.5411376953125,1.09100341796875,26.806640625,-1.025390625,-37.353515625
136.00061058998108,1678385794.7111626,0.126220703125,-0.009033203125,-1.002685546875,-0.42724609375,1.556396484375,1.21307373046875,27.392578125,-2.197265625,-37.060546875
136.20061087608337,1678385794.9111629,0.114990234375,-0.006103515625,-1.018798828125,-0.2288818359375,2.22015380859375,1.2969970703125,25.927734375,-1.318359375,-38.818359375
136.40061211585999,1678385795.111164,0.10791015625,0.011962890625,-1.00634765625,-0.60272216796875,2.87628173828125,1.190185546875,27.685546875,-1.318359375,-37.353515625
136.60061192512512,1678385795.311164,0.12255859375,-0.016845703125,-0.9970703125,-0.12969970703125,2.37274169921875,1.01470947265625,28.41796875,-1.171875,-37.5
136.80061221122742,1678385795.5111642,0.1259765625,-0.008056640625,-0.9853515625,-0.4730224609375,2.5177001953125,1.36566162109375,27.392578125,-1.025390625,-37.353515625
137.0006124973297,1678385795.7111645,0.14013671875,-0.015869140625,-0.9716796875,-0.335693359375,2.716064453125,1.2054443359375,27.392578125,-0.732421875,-37.353515625
137.2006139755249,1678385795.911166,0.12646484375,-0.0087890625,-0.970703125,-0.2899169921875,2.06756591796875,0.9765625,27.978515625,-0.439453125,-37.646484375
137.4006142616272,1678385796.1111662,0.134033203125,-0.0068359375,-0.9970703125,-0.5035400390625,1.89971923828125,1.251220703125,26.953125,-0.5859375,-37.79296875
137.60061526298523,1678385796.3111672,0.13134765625,-0.00732421875,-0.989990234375,-0.84686279296875,2.40325927734375,1.3275146484375,27.392578125,-0.146484375,-36.474609375
137.8006157875061,1678385796.5111678,0.13671875,-0.016357421875,-0.9970703125,-0.17547607421875,2.4261474609375,1.16729736328125,26.07421875,-2.63671875,-37.79296875
138.0006172657013,1678385796.7111692,0.14453125,0.0029296875,-0.983154296875,-0.7476806640625,2.1514892578125,1.25885009765625,26.220703125,-1.611328125,-37.353515625
138.200617313385,1678385796.9111693,0.135986328125,-0.030517578125,-0.96728515625,-0.83160400390625,2.0294189453125,1.007080078125,26.953125,-0.5859375,-36.9140625
138.40061783790588,1678385797.1111698,0.1435546875,-0.004638671875,-0.965087890625,-0.5340576171875,3.89862060546875,1.31988525390625,27.83203125,-1.46484375,-37.20703125
138.60061812400818,1678385797.31117,0.14501953125,-0.0126953125,-0.955322265625,-0.72479248046875,2.03704833984375,1.28173828125,26.220703125,-0.732421875,-36.767578125
138.80061960220337,1678385797.5111716,0.1513671875,-0.000732421875,-0.922607421875,-0.63323974609375,1.953125,1.068115234375,27.392578125,-0.146484375,-36.181640625
139.00062084197998,1678385797.7111728,0.16162109375,-0.0029296875,-0.93017578125,-0.81634521484375,0.6561279296875,1.251220703125,27.5390625,0.0,-36.62109375
139.20062160491943,1678385797.9111736,0.1650390625,0.00537109375,-0.945556640625,-0.64849853515625,0.26702880859375,1.25885009765625,27.099609375,-0.732421875,-37.939453125
139.4006221294403,1678385798.111174,0.14892578125,-0.005859375,-0.949951171875,-0.79345703125,-0.06866455078125,1.39617919921875,27.83203125,-1.46484375,-35.44921875
139.60062265396118,1678385798.3111746,0.158203125,-0.00732421875,-0.95458984375,-0.70953369140625,-0.32806396484375,1.25885009765625,27.24609375,-1.7578125,-36.62109375
139.8006236553192,1678385798.5111756,0.145263671875,-0.0029296875,-0.9560546875,-0.83160400390625,-0.09918212890625,1.35040283203125,28.564453125,-1.904296875,-37.060546875
140.00062441825867,1678385798.7111764,0.1552734375,-0.01513671875,-0.976806640625,-0.8544921875,0.2593994140625,1.2054443359375,28.564453125,-1.611328125,-37.060546875
140.2006242275238,1678385798.9111762,0.14453125,-0.009521484375,-1.010009765625,-0.72479248046875,0.4730224609375,0.9307861328125,26.513671875,0.439453125,-36.767578125
140.40062499046326,1678385799.111177,0.1357421875,-0.004638671875,-0.998779296875,-0.11444091796875,1.22833251953125,1.12152099609375,27.685546875,-1.904296875,-35.888671875
140.60062551498413,1678385799.3111775,0.143310546875,-0.01318359375,-1.0068359375,-0.70953369140625,1.47247314453125,1.12152099609375,27.392578125,-0.732421875,-37.060546875
140.80062651634216,1678385799.5111785,0.142333984375,-0.0048828125,-1.013427734375,-0.1373291015625,1.31988525390625,1.18255615234375,26.953125,-0.87890625,-37.20703125
141.0006275177002,1678385799.7111795,0.1357421875,-0.00146484375,-1.003662109375,-0.38909912109375,1.76239013671875,0.96893310546875,27.83203125,-1.7578125,-37.20703125
141.20062851905823,1678385799.9111805,0.1376953125,-0.00439453125,-1.01513671875,-0.28228759765625,1.8157958984375,1.220703125,26.806640625,-0.439453125,-37.646484375
141.4006290435791,1678385800.111181,0.152099609375,-0.00439453125,-0.999755859375,-0.1220703125,1.2359619140625,1.24359130859375,27.392578125,-0.732421875,-37.060546875
141.6006293296814,1678385800.3111813,0.143310546875,-0.0048828125,-1.0029296875,-0.3662109375,1.9378662109375,1.0528564453125,27.392578125,-0.439453125,-37.060546875
141.80063033103943,1678385800.5111823,0.13525390625,-0.01025390625,-1.001220703125,-0.67138671875,1.6632080078125,1.190185546875,27.392578125,-0.146484375,-37.939453125
142.00063109397888,1678385800.711183,0.134033203125,0.010498046875,-0.99658203125,-0.12969970703125,2.44140625,1.007080078125,27.5390625,-1.46484375,-37.20703125
142.2006323337555,1678385800.9111843,0.13916015625,-0.002685546875,-0.972412109375,-0.54168701171875,1.77764892578125,1.41143798828125,27.392578125,-1.904296875,-37.939453125
142.40063309669495,1678385801.111185,0.138916015625,-0.008056640625,-0.99072265625,-0.40435791015625,2.105712890625,1.21307373046875,27.099609375,-0.146484375,-36.767578125
