time_offset,timestamp,ax,ay,az,wx,wy,wz,mx,my,mz
0.002279520034790039,1680681509.408589,0.097900390625,0.0546875,-1.0927734375,2.54058837890625,1.2664794921875,1.21307373046875,12.01171875,-26.953125,-49.8046875
0.05228066444396973,1680681509.45859,0.003173828125,-0.017822265625,-1.01123046875,-6.14166259765625,3.7384033203125,0.9613037109375,11.1328125,-27.24609375,-50.68359375
0.10228157043457031,1680681509.508591,0.008056640625,0.052001953125,-0.9970703125,-1.2664794921875,3.3416748046875,1.434326171875,12.744140625,-27.392578125,-50.830078125
0.1522822380065918,1680681509.5585916,0.033447265625,0.0361328125,-1.014892578125,-1.53350830078125,0.030517578125,0.5645751953125,10.83984375,-26.66015625,-51.85546875
0.20228266716003418,1680681509.608592,0.031982421875,0.051025390625,-1.020263671875,-0.92315673828125,1.3580322265625,1.4801025390625,12.3046875,-27.5390625,-51.26953125
0.25228333473205566,1680681509.6585927,0.017578125,0.074462890625,-1.000244140625,-0.6866455078125,1.89971923828125,0.701904296875,10.986328125,-26.513671875,-49.951171875
0.30228400230407715,1680681509.7085934,0.03564453125,0.03759765625,-1.003173828125,-0.64849853515625,1.30462646484375,1.33514404296875,12.3046875,-26.3671875,-50.390625
0.35228395462036133,1680681509.7585933,0.037841796875,0.062744140625,-1.011962890625,-0.274658203125,1.10626220703125,0.9307861328125,10.83984375,-26.07421875,-49.21875
0.4022853374481201,1680681509.8085947,0.03369140625,0.038330078125,-1.029052734375,-0.1068115234375,1.62506103515625,1.190185546875,11.865234375,-26.220703125,-50.244140625
0.4522852897644043,1680681509.8585947,0.035400390625,0.0556640625,-1.011474609375,-0.8087158203125,1.16729736328125,1.09100341796875,11.71875,-26.3671875,-50.9765625
0.502286434173584,1680681509.9085958,0.0361328125,0.041259765625,-1.00634765625,-0.640869140625,1.3427734375,0.51116943359375,12.3046875,-26.3671875,-50.9765625
0.5522873401641846,1680681509.9585967,0.037841796875,0.031982421875,-1.01123046875,-1.129150390625,1.4801025390625,1.251220703125,12.158203125,-26.513671875,-50.830078125
0.602287769317627,1680681510.0085971,0.033447265625,0.04736328125,-1.004150390625,-1.45721435546875,1.312255859375,0.34332275390625,11.42578125,-25.1953125,-50.390625
0.6522893905639648,1680681510.0585988,0.04541015625,-0.000732421875,-1.012939453125,-2.2430419921875,1.18255615234375,1.129150390625,12.01171875,-26.07421875,-49.51171875
0.7022902965545654,1680681510.1085997,0.035400390625,0.048828125,-1.009033203125,-3.18145751953125,0.9918212890625,0.84686279296875,11.71875,-27.5390625,-51.26953125
0.7522914409637451,1680681510.1586008,0.037841796875,0.028564453125,-1.00927734375,-3.3111572265625,1.16729736328125,0.7476806640625,11.865234375,-26.220703125,-50.244140625
0.8022918701171875,1680681510.2086012,0.03369140625,0.05615234375,-1.01123046875,-4.2877197265625,1.1749267578125,0.98419189453125,10.546875,-25.78125,-51.26953125
0.8522930145263672,1680681510.2586024,0.03955078125,0.042236328125,-1.010986328125,-4.50897216796875,0.9307861328125,0.54168701171875,11.279296875,-26.513671875,-49.951171875
0.9022932052612305,1680681510.3086026,0.0263671875,0.035888671875,-0.987548828125,-3.95965576171875,1.6021728515625,0.9307861328125,11.572265625,-27.392578125,-50.537109375
0.9522933959960938,1680681510.3586028,0.015625,0.060546875,-1.016845703125,-5.37109375,0.95367431640625,0.4730224609375,11.42578125,-26.66015625,-49.51171875
1.0038046836853027,1680681510.410114,0.031494140625,0.041259765625,-1.010009765625,-6.06536865234375,0.732421875,0.78582763671875,11.1328125,-25.78125,-50.390625
1.0538055896759033,1680681510.460115,0.04345703125,0.032470703125,-1.007080078125,-6.4849853515625,0.46539306640625,1.0833740234375,10.400390625,-26.806640625,-49.658203125
1.1038062572479248,1680681510.5101156,0.047607421875,0.143798828125,-1.036376953125,-7.22503662109375,0.7476806640625,0.48828125,9.521484375,-25.634765625,-49.365234375
1.1538078784942627,1680681510.5601172,0.052734375,0.19580078125,-1.0244140625,-6.6986083984375,0.579833984375,1.35040283203125,10.400390625,-25.341796875,-50.244140625
1.2038087844848633,1680681510.6101182,0.023681640625,0.107666015625,-0.99462890625,-4.82940673828125,1.76239013671875,1.0986328125,10.400390625,-24.755859375,-51.708984375
1.2538094520568848,1680681510.6601188,0.021240234375,0.23779296875,-1.001953125,-2.11334228515625,0.69427490234375,0.78582763671875,10.107421875,-25.927734375,-51.416015625
1.303809404373169,1680681510.7101188,0.0087890625,0.115478515625,-0.9765625,0.80108642578125,0.244140625,0.41961669921875,10.107421875,-26.513671875,-51.123046875
1.3538093566894531,1680681510.7601187,0.085205078125,-0.00732421875,-1.009521484375,2.8076171875,-0.244140625,2.92205810546875,10.107421875,-25.927734375,-51.123046875
1.403810739517212,1680681510.81012,-0.11474609375,0.047607421875,-1.0283203125,-0.6103515625,4.52423095703125,0.60272216796875,9.9609375,-26.07421875,-51.85546875
1.4538116455078125,1680681510.860121,0.01416015625,-0.170654296875,-1.02294921875,-5.08880615234375,-0.69427490234375,-0.6103515625,10.25390625,-26.3671875,-50.09765625
1.5038118362426758,1680681510.9101212,0.0859375,0.001953125,-0.999267578125,-11.54327392578125,1.24359130859375,2.12860107421875,10.400390625,-26.220703125,-52.587890625
1.55381178855896,1680681510.9601212,0.1474609375,-0.03076171875,-0.984619140625,-14.57977294921875,1.5869140625,-0.05340576171875,9.228515625,-26.513671875,-50.830078125
1.6038124561309814,1680681511.0101218,0.017333984375,0.21435546875,-0.997314453125,-13.75579833984375,-0.25177001953125,0.518798828125,9.814453125,-25.048828125,-51.416015625
1.6538124084472656,1680681511.0601218,-0.06005859375,0.121337890625,-0.974365234375,-14.25933837890625,0.18310546875,3.31878662109375,8.935546875,-26.806640625,-51.123046875
1.703812599182129,1680681511.110122,-0.070068359375,0.24755859375,-0.9873046875,-12.4053955078125,1.068115234375,0.05340576171875,7.91015625,-26.953125,-49.8046875
1.7538139820098877,1680681511.1601233,0.021484375,0.033447265625,-0.97412109375,-12.4664306640625,1.5106201171875,2.08282470703125,7.6171875,-26.953125,-50.390625
1.80381441116333,1680681511.2101238,0.017822265625,0.16259765625,-1.0458984375,-14.9078369140625,0.6866455078125,4.44793701171875,7.91015625,-26.3671875,-51.26953125
1.8538157939910889,1680681511.2601252,-0.123291015625,0.313720703125,-0.674072265625,-12.93182373046875,4.852294921875,0.701904296875,6.73828125,-25.78125,-51.26953125
1.9038169384002686,1680681511.3101263,-0.03369140625,0.0107421875,-0.958251953125,-17.00592041015625,5.43212890625,5.50079345703125,7.470703125,-26.513671875,-50.537109375
1.9538168907165527,1680681511.3601263,-0.065673828125,0.35498046875,-0.955078125,-15.29693603515625,-0.8697509765625,3.8909912109375,7.177734375,-26.220703125,-51.123046875
2.0038180351257324,1680681511.4101274,0.00390625,0.66015625,-1.07763671875,-2.31170654296875,-12.8173828125,-3.50189208984375,5.859375,-23.73046875,-48.6328125
2.0538196563720703,1680681511.460129,0.40673828125,0.29931640625,-1.330322265625,3.47900390625,3.28826904296875,10.67352294921875,7.03125,-22.55859375,-48.6328125
2.1038198471069336,1680681511.5101292,0.19482421875,0.796875,-0.904052734375,3.143310546875,2.09808349609375,-2.288818359375,7.177734375,-23.583984375,-49.072265625
2.1538209915161133,1680681511.5601304,0.0712890625,0.175048828125,-0.802490234375,3.11279296875,0.213623046875,-2.2430419921875,7.470703125,-22.705078125,-49.072265625
2.2038216590881348,1680681511.610131,-0.03564453125,0.628173828125,-1.0634765625,0.8087158203125,-3.07464599609375,-13.3056640625,7.177734375,-22.412109375,-49.072265625
2.2538223266601562,1680681511.6601317,0.043701171875,-0.2978515625,-1.0537109375,-3.9520263671875,-4.5013427734375,9.1705322265625,7.03125,-23.4375,-49.21875
2.303823947906494,1680681511.7101333,-0.076904296875,0.8115234375,-0.912353515625,1.50299072265625,5.02777099609375,-2.01416015625,4.833984375,-22.412109375,-48.779296875
2.3538248538970947,1680681511.7601342,0.013916015625,0.181640625,-0.931884765625,-3.19671630859375,-1.64794921875,-2.15911865234375,6.15234375,-23.4375,-49.51171875
2.4038257598876953,1680681511.8101351,0.009521484375,0.28466796875,-0.95068359375,-1.0986328125,1.94549560546875,3.84521484375,6.298828125,-23.291015625,-49.365234375
2.4538276195526123,1680681511.860137,-0.00634765625,0.159423828125,-0.966552734375,-0.41961669921875,2.655029296875,-3.16619873046875,6.591796875,-22.998046875,-47.900390625
2.5038278102874756,1680681511.9101372,0.01953125,0.216064453125,-0.981689453125,-1.678466796875,0.0457763671875,2.79998779296875,5.712890625,-23.291015625,-48.486328125
2.5538289546966553,1680681511.9601383,0.0771484375,0.315185546875,-0.98388671875,1.0223388671875,1.62506103515625,-2.7313232421875,6.591796875,-22.412109375,-49.658203125
2.6038296222686768,1680681512.010139,-0.0224609375,0.248779296875,-0.968994140625,0.213623046875,1.30462646484375,2.3193359375,6.884765625,-23.291015625,-48.193359375
2.6538312435150146,1680681512.0601406,-0.0439453125,0.43310546875,-0.94775390625,4.119873046875,1.77764892578125,0.25177001953125,6.005859375,-22.412109375,-49.658203125
2.7038323879241943,1680681512.1101418,0.03857421875,0.29052734375,-0.906494140625,8.15582275390625,1.42669677734375,0.34332275390625,5.419921875,-22.998046875,-48.486328125
2.753833055496216,1680681512.1601424,-0.020263671875,0.18994140625,-0.956787109375,11.05499267578125,2.5482177734375,4.2266845703125,7.763671875,-22.998046875,-47.607421875
2.8038337230682373,1680681512.210143,-0.1015625,0.088623046875,-1.045166015625,13.58795166015625,3.10516357421875,1.44195556640625,5.859375,-23.4375,-48.33984375
2.853834867477417,1680681512.2601442,0.141357421875,0.09521484375,-1.082763671875,10.59722900390625,0.213623046875,6.4849853515625,7.6171875,-22.55859375,-48.92578125
2.9038350582122803,1680681512.3101444,0.15625,0.11474609375,-0.9912109375,3.25775146484375,2.14385986328125,2.777099609375,7.470703125,-21.533203125,-49.365234375
2.9538352489471436,1680681512.3601446,-0.14697265625,0.250732421875,-1.037841796875,3.47900390625,0.518798828125,-4.4403076171875,8.349609375,-22.119140625,-49.658203125
3.003835916519165,1680681512.4101453,-0.037353515625,0.208984375,-0.99169921875,5.096435546875,2.3193359375,3.24249267578125,7.470703125,-22.119140625,-48.486328125
3.0538368225097656,1680681512.4601462,-0.0205078125,0.3154296875,-1.018310546875,9.92584228515625,5.6915283203125,0.41961669921875,7.91015625,-21.97265625,-47.75390625
3.1038382053375244,1680681512.5101476,0.10498046875,0.375244140625,-1.0537109375,11.77215576171875,2.40325927734375,-1.80816650390625,7.91015625,-21.6796875,-48.92578125
3.153839111328125,1680681512.5601485,-0.126220703125,0.083740234375,-1.08447265625,10.97869873046875,2.9144287109375,-2.44903564453125,7.6171875,-21.38671875,-47.75390625
3.203840494155884,1680681512.6101499,0.177734375,-0.166259765625,-0.94580078125,4.08935546875,-0.20599365234375,1.19781494140625,7.32421875,-20.21484375,-47.4609375
3.253840684890747,1680681512.66015,0.006103515625,-0.184814453125,-0.69140625,0.8544921875,11.51275634765625,-3.57818603515625,9.9609375,-20.5078125,-47.4609375
3.303842067718506,1680681512.7101514,0.263671875,0.275146484375,-1.18310546875,15.2435302734375,1.31988525390625,-2.35748291015625,9.814453125,-20.361328125,-49.072265625
3.3538429737091064,1680681512.7601523,-0.009765625,0.11767578125,-0.984375,13.34381103515625,-1.28936767578125,0.6866455078125,9.9609375,-21.09375,-48.33984375
3.4038429260253906,1680681512.8101523,-0.04150390625,0.028564453125,-0.9453125,10.009765625,5.31005859375,0.946044921875,9.9609375,-20.5078125,-49.8046875
3.453843355178833,1680681512.8601527,0.025390625,0.1171875,-1.028564453125,7.049560546875,0.1373291015625,3.72314453125,10.986328125,-20.947265625,-48.779296875
3.5038444995880127,1680681512.9101539,0.032958984375,0.02880859375,-0.96875,6.18743896484375,1.15966796875,1.46484375,10.693359375,-21.240234375,-47.900390625
3.5538458824157715,1680681512.9601552,-0.04541015625,0.12060546875,-1.00634765625,7.02667236328125,2.410888671875,1.068115234375,10.693359375,-21.826171875,-48.193359375
3.603846549987793,1680681513.010156,-0.03466796875,-0.044677734375,-0.967041015625,6.37054443359375,2.54058837890625,3.021240234375,10.107421875,-22.412109375,-48.779296875
3.6538479328155518,1680681513.0601573,0.020751953125,-0.186767578125,-1.049072265625,-3.39508056640625,1.38092041015625,3.35693359375,11.279296875,-20.654296875,-47.314453125
3.703848361968994,1680681513.1101577,0.126708984375,0.0166015625,-1.03857421875,-9.30023193359375,0.9307861328125,5.66864013671875,10.25390625,-19.62890625,-48.046875
3.753849983215332,1680681513.1601593,-0.00830078125,0.606689453125,-0.93115234375,-1.42669677734375,0.3509521484375,1.93023681640625,11.1328125,-20.5078125,-48.046875
3.8038511276245117,1680681513.2101605,-0.145751953125,-0.019287109375,-0.958251953125,3.16619873046875,2.2430419921875,1.3580322265625,10.546875,-20.80078125,-48.92578125
3.853851318359375,1680681513.2601607,0.1572265625,0.232666015625,-0.97607421875,2.47955322265625,0.8697509765625,4.33349609375,9.9609375,-19.921875,-48.046875
3.9038515090942383,1680681513.3101609,0.18701171875,0.132568359375,-0.990478515625,4.06646728515625,1.1749267578125,8.27789306640625,10.25390625,-19.3359375,-45.99609375
3.9538514614105225,1680681513.3601608,-0.045654296875,0.1484375,-0.994873046875,7.91168212890625,1.99127197265625,-2.7618408203125,10.546875,-20.5078125,-47.75390625
4.003852367401123,1680681513.4101617,0.000732421875,0.066162109375,-1.005859375,7.05718994140625,2.12860107421875,3.12042236328125,11.865234375,-20.654296875,-47.900390625
4.053853988647461,1680681513.4601634,0.041259765625,-0.074951171875,-0.992919921875,3.59344482421875,2.0751953125,-4.0130615234375,12.890625,-20.80078125,-47.4609375
4.1038548946380615,1680681513.5101643,0.02099609375,0.09716796875,-0.9990234375,0.67138671875,1.220703125,4.61578369140625,11.42578125,-20.21484375,-47.16796875
4.153855323791504,1680681513.5601647,-0.068115234375,0.026123046875,-1.044921875,-1.42669677734375,1.70135498046875,1.2969970703125,12.59765625,-21.09375,-48.6328125
4.203856945037842,1680681513.6101663,0.100341796875,0.0830078125,-1.013427734375,-0.518798828125,2.28118896484375,-2.6092529296875,11.865234375,-19.482421875,-47.900390625
4.25385856628418,1680681513.660168,0.11572265625,0.066650390625,-1.006591796875,0.0457763671875,0.48065185546875,1.44195556640625,10.25390625,-20.5078125,-47.75390625
4.303858995437622,1680681513.7101684,0.0048828125,0.205322265625,-1.051513671875,2.49481201171875,1.64031982421875,2.00653076171875,12.158203125,-20.654296875,-48.193359375
4.353859901428223,1680681513.7601693,-0.06005859375,0.06103515625,-0.9931640625,2.92205810546875,1.71661376953125,-3.7078857421875,11.71875,-20.21484375,-48.92578125
4.403860092163086,1680681513.8101695,0.1005859375,0.033203125,-1.035400390625,-0.80108642578125,1.45721435546875,-0.30517578125,11.42578125,-21.38671875,-47.4609375
4.45386004447937,1680681513.8601694,0.060546875,0.0341796875,-1.013916015625,-1.89208984375,1.2359619140625,-2.655029296875,12.01171875,-20.21484375,-48.046875
4.503860235214233,1680681513.9101696,-0.0009765625,-0.0419921875,-1.1083984375,-4.55474853515625,0.40435791015625,5.28717041015625,11.279296875,-20.947265625,-47.607421875
4.553860902786255,1680681513.9601703,0.071044921875,0.146240234375,-0.991455078125,-5.8441162109375,1.15203857421875,-0.579833984375,10.986328125,-20.654296875,-47.607421875
4.603861331939697,1680681514.0101707,0.00732421875,-0.083251953125,-1.026123046875,-5.36346435546875,0.64849853515625,-0.2899169921875,11.865234375,-20.068359375,-47.607421875
4.653862476348877,1680681514.0601718,0.00146484375,0.041015625,-1.02197265625,-4.49371337890625,1.02996826171875,0.00762939453125,10.83984375,-20.5078125,-48.046875
4.703862428665161,1680681514.1101718,0.07666015625,0.11376953125,-1.005859375,-3.6773681640625,1.2664794921875,0.55694580078125,11.279296875,-20.947265625,-48.486328125
4.753863573074341,1680681514.160173,0.00634765625,0.049072265625,-1.003173828125,-2.9144287109375,1.53350830078125,-2.25830078125,10.546875,-20.80078125,-48.6328125
4.803863763809204,1680681514.2101731,-0.01220703125,0.09912109375,-1.017333984375,-3.448486328125,1.16729736328125,1.46484375,12.01171875,-20.80078125,-48.33984375
4.853865146636963,1680681514.2601745,0.09765625,0.050537109375,-1.007568359375,-3.1890869140625,0.91552734375,1.45721435546875,10.693359375,-20.361328125,-47.607421875
4.903865575790405,1680681514.310175,0.03955078125,0.103515625,-1.005859375,-2.9144287109375,1.45721435546875,-1.220703125,10.986328125,-19.775390625,-48.193359375
4.953866004943848,1680681514.3601754,0.03125,0.01220703125,-1.018798828125,-3.7994384765625,0.60272216796875,0.45013427734375,10.986328125,-20.361328125,-48.779296875
5.00386643409729,1680681514.4101758,0.01708984375,0.062744140625,-1.00927734375,-4.53948974609375,1.1138916015625,2.69317626953125,12.01171875,-20.80078125,-48.33984375
5.053866863250732,1680681514.4601762,0.029052734375,0.100341796875,-0.99462890625,-5.3863525390625,0.90789794921875,-0.60272216796875,9.814453125,-20.361328125,-49.072265625
5.103867292404175,1680681514.5101767,0.056884765625,0.059814453125,-1.009033203125,-6.21795654296875,0.823974609375,0.335693359375,11.42578125,-19.921875,-47.75390625
5.153867483139038,1680681514.5601768,0.030029296875,0.127685546875,-1.014404296875,-5.3863525390625,0.99945068359375,1.495361328125,10.83984375,-20.21484375,-47.75390625
5.203867673873901,1680681514.610177,0.028564453125,0.149658203125,-1.01904296875,-3.66973876953125,-0.05340576171875,0.23651123046875,10.546875,-21.97265625,-48.046875
5.253867864608765,1680681514.6601772,0.02685546875,0.114013671875,-0.978271484375,-1.24359130859375,1.48773193359375,0.49591064453125,9.814453125,-20.654296875,-47.607421875
5.303869009017944,1680681514.7101784,-0.0234375,0.10546875,-0.984619140625,-0.54168701171875,1.312255859375,2.03704833984375,9.375,-20.5078125,-48.33984375
5.3538689613342285,1680681514.7601783,-0.00439453125,0.0927734375,-1.0107421875,-0.20599365234375,1.57928466796875,0.80108642578125,10.986328125,-21.240234375,-49.072265625
5.403869867324829,1680681514.8101792,0.03564453125,0.0556640625,-1.003173828125,-1.79290771484375,1.068115234375,2.0294189453125,10.693359375,-21.240234375,-49.072265625
5.453871488571167,1680681514.8601809,0.02734375,0.078125,-0.99853515625,-2.99072265625,1.89208984375,1.28173828125,10.693359375,-20.654296875,-47.900390625
5.503871440887451,1680681514.9101808,0.04931640625,0.080810546875,-1.020263671875,-3.34930419921875,1.2969970703125,0.29754638671875,10.107421875,-20.068359375,-48.486328125
5.553872108459473,1680681514.9601815,-0.00048828125,0.2275390625,-0.984375,13.458251953125,8.30078125,-3.22723388671875,9.814453125,-20.654296875,-48.193359375
5.6038734912872314,1680681515.0101829,0.01953125,0.214599609375,-1.02587890625,-5.2947998046875,-0.3509521484375,-0.9002685546875,10.546875,-19.921875,-47.16796875
5.653875112533569,1680681515.0601845,-0.06494140625,-0.339599609375,-0.637939453125,-16.09039306640625,2.532958984375,-1.77001953125,9.814453125,-20.654296875,-49.072265625
5.7038750648498535,1680681515.1101844,0.0771484375,0.247802734375,-1.56396484375,9.04083251953125,1.190185546875,3.41033935546875,9.228515625,-20.654296875,-49.072265625
5.753875732421875,1680681515.160185,0.169189453125,-0.0439453125,-1.072509765625,4.0130615234375,-8.81195068359375,-0.5950927734375,10.25390625,-20.80078125,-46.875
5.803875684738159,1680681515.210185,-0.097412109375,0.327880859375,-0.951171875,-1.8768310546875,4.57763671875,0.5340576171875,10.400390625,-21.826171875,-49.072265625
5.85387659072876,1680681515.260186,0.024169921875,0.0478515625,-0.970947265625,-1.739501953125,-2.7618408203125,0.4119873046875,9.9609375,-20.80078125,-47.75390625
5.903877019882202,1680681515.3101864,0.083740234375,0.085693359375,-0.976318359375,-2.40325927734375,1.83868408203125,2.18963623046875,9.375,-19.921875,-48.046875
5.953877210617065,1680681515.3601866,-0.021240234375,0.126708984375,-1.034423828125,1.57928466796875,6.3934326171875,1.53350830078125,10.546875,-21.09375,-46.58203125
6.003877639770508,1680681515.410187,0.013427734375,0.089111328125,-0.989501953125,-0.579833984375,-1.220703125,0.6561279296875,8.349609375,-20.654296875,-48.193359375
6.053877592086792,1680681515.460187,0.06884765625,0.140625,-1.008056640625,0.946044921875,0.5035400390625,1.64794921875,10.107421875,-20.068359375,-48.486328125
6.103877782821655,1680681515.5101871,-0.013671875,0.164306640625,-1.015869140625,1.0223388671875,2.72369384765625,0.457763671875,10.107421875,-20.654296875,-49.072265625
6.153879404067993,1680681515.5601888,0.018798828125,0.0537109375,-1.007080078125,-0.946044921875,0.66375732421875,0.93841552734375,9.66796875,-20.5078125,-48.92578125
6.203880548477173,1680681515.61019,0.06396484375,0.13525390625,-0.994140625,-0.9918212890625,1.24359130859375,1.25885009765625,10.25390625,-21.09375,-49.21875
6.253880739212036,1680681515.66019,0.020263671875,0.10986328125,-1.01416015625,0.48828125,2.3651123046875,0.98419189453125,9.521484375,-19.482421875,-48.779296875
6.30388069152832,1680681515.71019,0.0205078125,0.1298828125,-1.01806640625,-0.08392333984375,1.15966796875,1.0986328125,9.66796875,-20.21484375,-49.51171875
6.353882074356079,1680681515.7601914,0.03369140625,0.1005859375,-0.989013671875,0.8087158203125,0.946044921875,-0.09918212890625,10.83984375,-21.09375,-48.6328125
6.4038825035095215,1680681515.8101919,0.010498046875,0.1298828125,-1.0146484375,0.6256103515625,1.82342529296875,0.63323974609375,10.400390625,-20.361328125,-47.900390625
6.453882694244385,1680681515.860192,0.02587890625,0.068359375,-0.943115234375,-0.87738037109375,1.99127197265625,1.5869140625,11.1328125,-20.80078125,-47.4609375
6.5038840770721436,1680681515.9101934,0.126953125,0.08203125,-1.06103515625,-1.91497802734375,-5.04302978515625,3.59344482421875,9.521484375,-21.240234375,-47.900390625
6.553884029388428,1680681515.9601934,0.04296875,0.063720703125,-1.046142578125,5.31768798828125,0.99945068359375,-0.17547607421875,9.375,-20.80078125,-47.16796875
6.603883981704712,1680681516.0101933,-0.015625,0.1259765625,-1.022216796875,-0.60272216796875,2.8228759765625,1.5716552734375,9.521484375,-20.947265625,-48.486328125
6.653884410858154,1680681516.0601938,-0.017578125,0.175537109375,-0.931396484375,1.70135498046875,-0.03814697265625,-0.77056884765625,8.056640625,-19.189453125,-47.314453125
6.703885555267334,1680681516.110195,0.072021484375,-0.125732421875,-0.9482421875,-2.6397705078125,3.8299560546875,1.56402587890625,9.521484375,-20.068359375,-47.607421875
6.753886461257935,1680681516.1601958,-0.058349609375,0.18359375,-0.983154296875,0.1220703125,4.23431396484375,0.4425048828125,9.814453125,-20.654296875,-48.486328125
6.803886890411377,1680681516.2101963,0.4296875,0.183349609375,2.0,21.27838134765625,4.82940673828125,-2.52532958984375,10.107421875,-21.826171875,-48.779296875
6.853888273239136,1680681516.2601976,-0.095703125,0.329833984375,-0.894287109375,-7.2021484375,-5.8746337890625,2.5177001953125,10.546875,-20.21484375,-48.6328125
6.903888940811157,1680681516.3101983,0.0947265625,-0.0146484375,-0.96337890625,2.20489501953125,10.73455810546875,-2.18963623046875,9.9609375,-21.38671875,-47.75390625
6.953890085220337,1680681516.3601995,0.154541015625,0.132568359375,-1.123046875,2.18963623046875,-4.0130615234375,0.762939453125,9.228515625,-19.775390625,-48.193359375
7.0038909912109375,1680681516.4102004,-0.0625,0.22509765625,-1.345458984375,1.10626220703125,-0.152587890625,-0.335693359375,9.9609375,-20.5078125,-48.046875
7.053891181945801,1680681516.4602005,-0.119873046875,0.20947265625,-0.972412109375,-5.01251220703125,6.4697265625,1.0528564453125,10.546875,-20.5078125,-48.33984375
7.103892803192139,1680681516.5102022,0.180419921875,0.046142578125,-0.873779296875,-5.5084228515625,2.8533935546875,-2.79998779296875,10.107421875,-20.361328125,-48.779296875
7.153893232345581,1680681516.5602026,0.08203125,-0.060791015625,-1.03271484375,-2.6092529296875,1.97601318359375,-0.579833984375,9.814453125,-21.240234375,-47.900390625
7.203894138336182,1680681516.6102035,-0.08251953125,0.190673828125,-1.0400390625,2.99835205078125,0.87738037109375,3.7689208984375,9.228515625,-21.240234375,-48.486328125
7.2538957595825195,1680681516.6602051,-0.0390625,0.17041015625,-0.97119140625,-0.6256103515625,1.53350830078125,1.1444091796875,10.400390625,-22.119140625,-47.314453125
7.303895711898804,1680681516.710205,0.12353515625,0.1376953125,-1.0283203125,1.0223388671875,0.25177001953125,1.922607421875,10.107421875,-20.947265625,-47.900390625
7.353895664215088,1680681516.760205,0.02587890625,0.05029296875,-0.99853515625,-1.6021728515625,2.3956298828125,0.91552734375,9.66796875,-21.09375,-48.33984375
7.403897047042847,1680681516.8102064,-0.003662109375,0.083984375,-1.020263671875,-0.823974609375,0.42724609375,3.44085693359375,10.400390625,-21.826171875,-47.900390625
7.453897714614868,1680681516.860207,0.0419921875,0.147216796875,-1.01025390625,-0.90789794921875,1.5716552734375,0.8087158203125,9.9609375,-20.21484375,-48.92578125
7.50389838218689,1680681516.9102077,0.060546875,0.105224609375,-0.97265625,-0.41961669921875,0.8697509765625,-0.93841552734375,10.986328125,-21.240234375,-49.072265625
7.553898572921753,1680681516.960208,-0.03271484375,0.081298828125,-0.978515625,-1.6937255859375,1.88446044921875,1.25885009765625,9.814453125,-20.654296875,-48.779296875
7.603899002075195,1680681517.0102084,-0.00048828125,0.101806640625,-1.012939453125,-3.0364990234375,2.166748046875,1.44195556640625,10.400390625,-19.775390625,-47.314453125
7.653900384902954,1680681517.0602098,0.08935546875,0.160888671875,-1.0146484375,-1.45721435546875,0.72479248046875,-0.42724609375,11.572265625,-20.654296875,-48.193359375
7.703901290893555,1680681517.1102107,0.018798828125,0.033447265625,-0.99072265625,-0.87738037109375,1.373291015625,1.5411376953125,8.7890625,-21.09375,-48.6328125
7.753901243209839,1680681517.1602106,-0.029296875,0.11181640625,-1.010498046875,-0.1373291015625,1.495361328125,1.67083740234375,10.693359375,-21.826171875,-47.607421875
7.8039023876190186,1680681517.2102118,0.035888671875,0.079833984375,-1.01123046875,-1.15203857421875,1.27410888671875,0.67138671875,9.228515625,-20.654296875,-47.314453125
7.853903293609619,1680681517.2602127,0.05810546875,0.121337890625,-1.005859375,-1.068115234375,1.28173828125,0.54168701171875,10.693359375,-20.068359375,-47.314453125
7.903904914855957,1680681517.3102143,0.013916015625,0.08642578125,-1.00830078125,-1.21307373046875,1.47247314453125,1.0833740234375,9.66796875,-19.921875,-46.58203125
7.95390510559082,1680681517.3602145,0.0087890625,0.112548828125,-0.999267578125,-0.762939453125,1.42669677734375,1.59454345703125,9.814453125,-21.826171875,-47.314453125
8.003906726837158,1680681517.410216,0.022705078125,0.123779296875,-0.9951171875,-0.66375732421875,1.44195556640625,0.92315673828125,9.08203125,-21.09375,-46.875
8.053908348083496,1680681517.4602177,0.029052734375,0.10888671875,-1.0029296875,-0.213623046875,1.373291015625,0.7476806640625,9.66796875,-21.38671875,-50.390625
8.103908777236938,1680681517.5102181,0.0263671875,0.1123046875,-1.004150390625,-0.244140625,1.50299072265625,1.06048583984375,10.546875,-21.09375,-48.046875
8.153908729553223,1680681517.560218,0.023193359375,0.114013671875,-1.00244140625,0.23651123046875,1.51824951171875,1.03759765625,10.400390625,-20.068359375,-49.072265625
8.203908681869507,1680681517.610218,0.024169921875,0.103515625,-1.009521484375,0.0457763671875,1.3275146484375,0.87738037109375,9.9609375,-21.09375,-48.6328125
8.25390911102295,1680681517.6602185,0.029541015625,0.093994140625,-1.013916015625,-0.00762939453125,1.25885009765625,1.12152099609375,10.107421875,-22.119140625,-48.193359375
8.303910493850708,1680681517.7102199,0.02197265625,0.102294921875,-1.012939453125,0.34332275390625,1.5411376953125,0.81634521484375,9.814453125,-22.412109375,-47.900390625
8.353910446166992,1680681517.7602198,0.02685546875,0.089599609375,-1.007568359375,0.030517578125,1.30462646484375,0.77056884765625,10.546875,-21.09375,-48.046875
8.403910398483276,1680681517.8102198,0.03173828125,0.1064453125,-1.003662109375,-0.2899169921875,1.33514404296875,1.16729736328125,10.25390625,-21.09375,-47.75390625
8.453911542892456,1680681517.860221,0.01708984375,0.080322265625,-0.996337890625,-0.20599365234375,1.373291015625,1.06048583984375,11.1328125,-21.97265625,-48.046875
8.503912687301636,1680681517.910222,0.016845703125,0.1025390625,-1.00439453125,0.2899169921875,1.44195556640625,0.823974609375,10.25390625,-21.6796875,-48.046875
8.553913831710815,1680681517.9602232,0.010009765625,0.12060546875,-1.013671875,0.152587890625,3.82232666015625,0.9307861328125,9.66796875,-20.80078125,-48.33984375
8.6039137840271,1680681518.0102232,0.02392578125,0.123046875,-1.03076171875,1.22833251953125,1.68609619140625,2.3040771484375,10.693359375,-21.826171875,-48.486328125
8.653913974761963,1680681518.0602233,-0.0263671875,0.1015625,-0.991943359375,2.2125244140625,2.28118896484375,2.08282470703125,10.400390625,-21.240234375,-48.193359375
8.703914880752563,1680681518.1102242,0.0107421875,0.129638671875,-0.89501953125,3.7689208984375,5.31768798828125,2.62451171875,8.49609375,-21.6796875,-47.75390625
8.753914833068848,1680681518.1602242,0.130859375,0.175537109375,-1.066162109375,4.730224609375,1.1138916015625,2.7923583984375,10.693359375,-22.412109375,-48.193359375
8.803915739059448,1680681518.210225,0.1669921875,0.07861328125,-1.0009765625,1.5106201171875,1.46484375,0.70953369140625,10.693359375,-21.240234375,-48.779296875
8.85391616821289,1680681518.2602255,0.15087890625,0.11767578125,-1.000732421875,1.7852783203125,3.86810302734375,5.096435546875,11.279296875,-22.412109375,-48.193359375
8.903917074203491,1680681518.3102264,0.15966796875,0.083984375,-1.008544921875,0.63323974609375,1.800537109375,0.18310546875,10.107421875,-22.998046875,-47.900390625
8.953917980194092,1680681518.3602273,0.12939453125,0.10693359375,-1.0244140625,0.93841552734375,2.0904541015625,0.732421875,11.572265625,-24.755859375,-49.365234375
9.003919124603271,1680681518.4102285,0.191162109375,0.002197265625,-0.935791015625,0.25177001953125,2.8839111328125,4.06646728515625,11.42578125,-27.24609375,-50.390625
9.053919076919556,1680681518.4602284,0.27099609375,0.056884765625,-0.946044921875,1.556396484375,2.25830078125,2.87628173828125,9.521484375,-25.634765625,-52.294921875
9.103920459747314,1680681518.5102298,0.28515625,0.11474609375,-1.11376953125,1.62506103515625,0.08392333984375,-0.87738037109375,9.521484375,-26.513671875,-54.931640625
9.153920412063599,1680681518.5602298,0.372314453125,0.158447265625,-1.060546875,2.34222412109375,6.38580322265625,1.99127197265625,11.279296875,-27.099609375,-56.689453125
9.20392107963562,1680681518.6102304,0.32861328125,0.06591796875,-1.06689453125,-3.8909912109375,2.87628173828125,-1.54876708984375,10.107421875,-25.341796875,-59.619140625
9.253921508789062,1680681518.6602309,0.28173828125,0.03369140625,-1.168701171875,1.8310546875,-3.42559814453125,-3.91387939453125,10.693359375,-23.583984375,-60.791015625
9.303922891616821,1680681518.7102323,0.33740234375,0.135986328125,-0.943359375,0.63323974609375,11.13128662109375,-7.3089599609375,9.08203125,-22.8515625,-59.47265625
9.353924036026001,1680681518.7602334,0.354248046875,0.18798828125,2.0,-0.396728515625,-9.1400146484375,-9.6893310546875,9.08203125,-22.265625,-58.59375
9.403924703598022,1680681518.810234,-0.21728515625,0.291259765625,-1.34423828125,12.93182373046875,15.3961181640625,-13.1988525390625,10.83984375,-24.609375,-57.71484375
9.453924894332886,1680681518.8602343,0.353271484375,-0.42138671875,-0.899169921875,-6.0272216796875,4.98199462890625,3.82232666015625,10.107421875,-28.564453125,-60.205078125
9.503926038742065,1680681518.9102354,0.44970703125,0.26904296875,-1.107177734375,18.12744140625,-3.56292724609375,12.64190673828125,8.7890625,-25.78125,-65.625
9.553932189941406,1680681518.9602416,0.4677734375,-0.277587890625,-0.69921875,-9.05609130859375,9.26971435546875,14.35089111328125,11.572265625,-20.654296875,-68.701171875
9.60393238067627,1680681519.0102417,0.423095703125,0.335205078125,-1.746337890625,-1.678466796875,-10.33782958984375,8.4075927734375,10.83984375,-13.4765625,-62.6953125
9.653934717178345,1680681519.060244,0.22998046875,0.131103515625,-1.536376953125,-7.4005126953125,-5.279541015625,3.66973876953125,11.71875,-17.28515625,-50.09765625
9.703935861587524,1680681519.1102452,0.079345703125,0.1572265625,-0.84765625,5.56182861328125,-13.12255859375,3.0059814453125,11.572265625,-25.048828125,-46.728515625
9.753937244415283,1680681519.1602466,0.026123046875,-0.045654296875,-0.72119140625,-7.28607177734375,-21.148681640625,6.21795654296875,11.279296875,-29.150390625,-50.537109375
9.803938150405884,1680681519.2102475,-1.14501953125,-1.146240234375,-0.510498046875,2.52532958984375,60.546875,9.40704345703125,10.693359375,-32.080078125,-56.982421875
9.853939294815063,1680681519.2602487,-0.27587890625,1.3271484375,-1.3603515625,-0.9002685546875,14.45770263671875,-5.62286376953125,9.9609375,-31.93359375,-70.01953125
9.903940439224243,1680681519.3102498,0.167236328125,-0.698974609375,-0.203857421875,-7.97271728515625,-16.04461669921875,2.7618408203125,9.08203125,-21.97265625,-75.0
9.953941822052002,1680681519.3602512,-0.149658203125,0.39111328125,-1.796142578125,19.08111572265625,23.01025390625,-5.67626953125,9.814453125,-14.208984375,-66.357421875
10.003942728042603,1680681519.410252,0.54248046875,-0.09033203125,-0.914794921875,-8.27789306640625,-17.93670654296875,-8.5296630859375,12.158203125,-20.361328125,-58.154296875
10.053943157196045,1680681519.4602525,0.5947265625,0.469970703125,2.0,16.86859130859375,-29.3426513671875,-9.25445556640625,10.400390625,-22.119140625,-60.205078125
10.103943586349487,1680681519.510253,-0.310791015625,-0.06396484375,-0.52685546875,-11.83319091796875,8.1634521484375,-5.92803955078125,11.865234375,-22.998046875,-59.033203125
10.153945207595825,1680681519.5602546,0.589599609375,0.155029296875,-1.526123046875,9.1552734375,3.7384033203125,-6.87408447265625,11.1328125,-25.48828125,-59.765625
10.203945398330688,1680681519.6102548,0.501708984375,0.22705078125,2.0,19.11163330078125,-8.4381103515625,-3.265380859375,10.693359375,-30.908203125,-67.529296875
10.253946781158447,1680681519.6602561,0.087890625,-0.776123046875,-1.799072265625,-15.00701904296875,-0.885009765625,3.89862060546875,10.107421875,-24.169921875,-83.935546875
10.303947687149048,1680681519.710257,0.02587890625,0.236328125,-1.028564453125,-1.7242431640625,-33.050537109375,3.83758544921875,10.400390625,-8.935546875,-75.146484375
10.35394835472107,1680681519.7602577,-0.241455078125,0.316650390625,-0.723876953125,5.60760498046875,44.3572998046875,3.91387939453125,12.01171875,-10.25390625,-58.59375
10.403948545455933,1680681519.810258,0.344482421875,-0.502197265625,-0.24462890625,-13.17596435546875,10.711669921875,13.32855224609375,12.3046875,-16.40625,-49.8046875
10.453949451446533,1680681519.8602588,0.1298828125,0.475341796875,-0.731201171875,-2.06756591796875,17.6849365234375,11.20758056640625,13.18359375,-24.609375,-48.6328125
10.503949642181396,1680681519.910259,0.2919921875,0.03662109375,-1.8125,-5.51605224609375,-7.65228271484375,10.4522705078125,12.158203125,-26.220703125,-55.224609375
10.55505657196045,1680681519.961366,0.0458984375,-0.2568359375,0.14599609375,-11.22283935546875,-4.5623779296875,11.8408203125,12.59765625,-24.609375,-60.64453125
10.605057716369629,1680681520.011367,-0.098388671875,0.427734375,-0.648681640625,4.3487548828125,38.0706787109375,5.37872314453125,13.037109375,-22.412109375,-58.154296875
10.65505862236023,1680681520.061368,-0.021728515625,0.044921875,-1.36328125,17.3187255859375,-10.345458984375,14.678955078125,12.158203125,-26.513671875,-59.912109375
10.705060005187988,1680681520.1113694,-0.475830078125,0.156494140625,-1.288330078125,5.33294677734375,14.007568359375,8.97216796875,10.83984375,-24.31640625,-68.26171875
10.755061626434326,1680681520.161371,-0.953857421875,-0.18603515625,0.27099609375,-10.6201171875,39.57366943359375,8.07952880859375,11.279296875,-13.623046875,-64.599609375
10.805062294006348,1680681520.2113717,0.862060546875,0.24072265625,0.2177734375,-15.869140625,-3.875732421875,18.585205078125,13.76953125,-19.04296875,-47.75390625
10.855063676834106,1680681520.261373,-0.198974609375,-1.10302734375,0.88134765625,-13.19122314453125,54.6112060546875,15.43426513671875,13.623046875,-27.392578125,-46.435546875
10.90506362915039,1680681520.311373,-0.376220703125,0.716552734375,-0.0498046875,-21.78955078125,4.2572021484375,4.5166015625,13.18359375,-30.46875,-54.4921875
10.95506501197815,1680681520.3613744,1.077392578125,0.426513671875,-1.990234375,18.33343505859375,-67.42095947265625,9.34600830078125,11.865234375,-31.201171875,-70.751953125
11.005065679550171,1680681520.411375,-0.3701171875,-0.0302734375,0.781982421875,13.17596435546875,30.11322021484375,0.8087158203125,12.01171875,-16.11328125,-74.12109375
11.055065870285034,1680681520.4613752,0.34033203125,-0.247314453125,-0.40087890625,-23.2391357421875,-0.152587890625,-3.41033935546875,13.18359375,-17.578125,-58.59375
11.105067014694214,1680681520.5113764,0.292236328125,-0.17431640625,-0.352783203125,9.1705322265625,6.56890869140625,-1.07574462890625,12.158203125,-21.826171875,-60.205078125
11.155067443847656,1680681520.5613768,-0.3046875,-0.066650390625,0.7470703125,-2.79998779296875,31.0516357421875,-1.71661376953125,14.208984375,-25.048828125,-60.205078125
11.20506763458252,1680681520.611377,0.853759765625,-0.07666015625,-1.551513671875,11.505126953125,13.153076171875,-0.396728515625,13.18359375,-29.8828125,-73.2421875
11.2550687789917,1680681520.6613781,1.02734375,-1.30517578125,0.134765625,5.401611328125,63.9495849609375,22.62115478515625,10.693359375,-12.744140625,-83.349609375
11.305069923400879,1680681520.7113793,-0.1708984375,-0.561767578125,1.18017578125,-32.15789794921875,65.97900390625,20.33233642578125,14.6484375,-9.66796875,-58.59375
11.355071067810059,1680681520.7613804,0.046875,0.327880859375,2.0,11.68060302734375,7.843017578125,7.1868896484375,15.087890625,-19.189453125,-48.779296875
11.405072450637817,1680681520.8113818,0.1240234375,0.39501953125,-1.03076171875,30.92193603515625,17.02117919921875,8.8348388671875,13.916015625,-26.513671875,-51.708984375
11.455074071884155,1680681520.8613834,0.16650390625,0.393798828125,-0.454345703125,16.80755615234375,22.13287353515625,8.453369140625,14.794921875,-23.583984375,-59.326171875
11.505074977874756,1680681520.9113843,0.81298828125,-0.050537109375,-1.96337890625,8.819580078125,-42.877197265625,11.749267578125,14.501953125,-21.826171875,-56.103515625
11.555075883865356,1680681520.9613853,0.17626953125,-0.10009765625,2.0,-4.85992431640625,-0.8544921875,11.08551025390625,15.380859375,-25.927734375,-59.619140625
11.60507583618164,1680681521.0113852,0.35205078125,-0.492919921875,2.0,7.08770751953125,-28.839111328125,24.10888671875,16.11328125,-16.69921875,-67.96875
11.655075788497925,1680681521.0613852,0.498779296875,-0.369140625,-1.88623046875,22.0489501953125,-23.67401123046875,35.48431396484375,17.28515625,-14.94140625,-50.390625
11.705076217651367,1680681521.1113856,0.454345703125,0.170166015625,-0.889404296875,9.14764404296875,-5.2337646484375,37.994384765625,18.603515625,-25.048828125,-47.021484375
11.755077362060547,1680681521.1613867,0.249755859375,0.226318359375,-1.236572265625,8.7432861328125,8.15582275390625,39.74151611328125,18.017578125,-31.201171875,-56.103515625
11.80507779121399,1680681521.2113872,-0.58447265625,0.13623046875,-0.055908203125,-2.12860107421875,20.48492431640625,30.58624267578125,16.11328125,-17.578125,-75.87890625
11.85507845878601,1680681521.2613878,-0.053466796875,-0.226318359375,-1.53466796875,-3.60870361328125,2.96783447265625,36.67449951171875,18.603515625,-17.724609375,-57.568359375
11.905079364776611,1680681521.3113887,-0.029541015625,-0.0048828125,-1.332763671875,7.598876953125,6.06536865234375,37.48321533203125,18.017578125,-18.896484375,-57.275390625
11.955080509185791,1680681521.3613899,0.1806640625,0.290283203125,-0.353759765625,-5.53131103515625,13.26751708984375,45.69244384765625,18.310546875,-25.048828125,-61.962890625
12.005081415176392,1680681521.4113908,0.40625,-0.0625,-0.390625,5.21087646484375,20.80535888671875,52.10113525390625,15.8203125,-14.6484375,-85.546875
12.05508279800415,1680681521.4613922,0.308837890625,-0.065185546875,-1.51123046875,-13.1378173828125,19.75250244140625,60.0433349609375,18.1640625,-5.2734375,-59.47265625
12.105082988739014,1680681521.5113924,0.6884765625,0.002685546875,-1.537353515625,-14.373779296875,-8.41522216796875,62.04986572265625,19.775390625,-14.794921875,-47.021484375
12.155082941055298,1680681521.5613923,0.31640625,0.524169921875,-0.740478515625,-11.55853271484375,14.739990234375,56.09130859375,18.896484375,-19.775390625,-55.224609375
12.205082893371582,1680681521.6113923,0.0556640625,0.342529296875,-0.5380859375,-10.50567626953125,14.892578125,38.85650634765625,18.1640625,-15.52734375,-58.88671875
12.255083084106445,1680681521.6613925,0.156982421875,0.14794921875,-1.061767578125,-10.67352294921875,-2.0599365234375,32.4249267578125,18.1640625,-16.11328125,-56.8359375
12.305083990097046,1680681521.7113934,0.353759765625,-0.100341796875,-1.05224609375,-10.8184814453125,6.14166259765625,35.37750244140625,16.69921875,-11.71875,-70.01953125
12.355085134506226,1680681521.7613945,0.17138671875,0.49658203125,-1.135498046875,3.41033935546875,-3.448486328125,36.834716796875,18.75,-7.91015625,-49.51171875
12.405085802078247,1680681521.8113952,-0.120849609375,0.086181640625,-0.88134765625,-8.84246826171875,8.14056396484375,29.70123291015625,18.1640625,-20.21484375,-50.390625
12.455085754394531,1680681521.8613951,0.34912109375,0.1884765625,-1.102783203125,-7.75909423828125,6.47735595703125,27.5115966796875,14.94140625,-22.55859375,-68.26171875
12.505086660385132,1680681521.911396,0.32666015625,0.125732421875,-1.548583984375,-9.0484619140625,-13.3819580078125,30.06744384765625,17.138671875,-6.005859375,-64.892578125
12.555087566375732,1680681521.961397,-0.143310546875,-0.1640625,-0.92529296875,-2.14385986328125,17.28057861328125,28.72467041015625,17.431640625,-12.158203125,-59.326171875
12.605088949203491,1680681522.0113983,0.069580078125,-0.08740234375,-0.101318359375,-5.859375,16.5863037109375,21.67510986328125,17.138671875,-16.845703125,-61.376953125
12.655088901519775,1680681522.0613983,0.17041015625,0.242919921875,-1.2890625,-8.52203369140625,5.54656982421875,18.5699462890625,14.208984375,-12.451171875,-84.521484375
12.705089330673218,1680681522.1113987,0.323486328125,-0.178466796875,-1.599853515625,-12.45880126953125,-7.9803466796875,18.30291748046875,16.11328125,1.7578125,-61.5234375
12.755090475082397,1680681522.1613998,0.361328125,-0.046630859375,-1.4482421875,-17.05169677734375,-6.866455078125,16.94488525390625,18.1640625,-9.66796875,-46.58203125
12.805091619491577,1680681522.211401,0.011962890625,-0.030517578125,-1.09716796875,-14.0838623046875,6.96563720703125,13.49639892578125,15.673828125,-14.794921875,-57.861328125
12.855092525482178,1680681522.261402,0.104736328125,-0.170654296875,-0.666748046875,-6.7596435546875,-4.058837890625,19.3328857421875,14.794921875,-10.400390625,-60.791015625
12.905092477798462,1680681522.3114018,0.03271484375,0.019775390625,-0.2587890625,-15.12908935546875,7.8277587890625,15.28167724609375,14.94140625,-13.4765625,-59.765625
12.9550940990448,1680681522.3614035,-0.005126953125,-0.4560546875,-0.39306640625,-15.2740478515625,19.34814453125,24.7650146484375,14.794921875,-4.833984375,-68.701171875
13.005095958709717,1680681522.4114053,0.131103515625,0.1796875,-0.614501953125,-14.1448974609375,1.01470947265625,18.798828125,15.8203125,-9.08203125,-47.4609375
13.05509614944458,1680681522.4614055,0.009521484375,0.210205078125,-0.972900390625,4.730224609375,-13.66424560546875,12.1002197265625,14.794921875,-18.017578125,-55.517578125
13.105097770690918,1680681522.5114071,0.0224609375,-0.249267578125,-1.416015625,-12.3748779296875,-3.2501220703125,8.819580078125,12.59765625,-8.49609375,-77.63671875
13.155097723007202,1680681522.561407,0.301025390625,0.077880859375,-1.215087890625,0.81634521484375,-10.7574462890625,7.4615478515625,15.52734375,-8.7890625,-60.05859375
13.205098390579224,1680681522.6114078,0.354248046875,0.227294921875,-0.4912109375,2.11334228515625,9.7503662109375,8.06427001953125,14.501953125,-11.572265625,-60.205078125
13.255099058151245,1680681522.6614084,0.0263671875,0.18212890625,-0.302734375,-12.35198974609375,3.30352783203125,3.95965576171875,12.59765625,-15.8203125,-80.56640625
13.305100202560425,1680681522.7114096,-0.21533203125,-0.342529296875,-0.762939453125,-18.01300048828125,21.70562744140625,9.70458984375,12.3046875,3.80859375,-68.84765625
13.355100154876709,1680681522.7614095,0.540771484375,-0.10205078125,-1.78662109375,-2.8839111328125,-18.02825927734375,9.7198486328125,14.0625,-6.15234375,-49.21875
13.405101537704468,1680681522.811411,-0.239990234375,0.214111328125,-1.28564453125,-3.570556640625,10.36834716796875,-3.8909912109375,12.59765625,-13.76953125,-59.1796875
13.455102443695068,1680681522.8614118,0.434814453125,0.30517578125,-1.606201171875,2.70843505859375,-10.74981689453125,-5.1116943359375,12.744140625,-10.400390625,-59.033203125
13.50510287284851,1680681522.9114122,0.33544921875,0.439208984375,-0.830810546875,21.05712890625,-0.96893310546875,-7.83538818359375,12.744140625,-12.158203125,-66.943359375
13.55510425567627,1680681522.9614136,0.14892578125,-0.0634765625,-0.95654296875,-15.6097412109375,-7.43865966796875,-4.058837890625,13.18359375,-1.7578125,-62.40234375
13.60510516166687,1680681523.0114145,0.077392578125,-0.180419921875,-1.043212890625,-1.0528564453125,7.37762451171875,0.70953369140625,14.6484375,-13.4765625,-47.4609375
13.65510630607605,1680681523.0614157,-0.02734375,-0.125732421875,-0.5546875,-19.1802978515625,6.89697265625,7.60650634765625,13.76953125,-20.21484375,-63.28125
13.705106735229492,1680681523.111416,-0.0673828125,-0.34716796875,-0.151123046875,-9.49859619140625,8.27789306640625,10.44464111328125,13.037109375,-2.783203125,-67.236328125
13.755107402801514,1680681523.1614168,0.23486328125,0.29638671875,-1.43359375,9.82666015625,-10.76507568359375,13.9312744140625,14.35546875,-9.9609375,-60.3515625
13.805108785629272,1680681523.2114182,-0.32373046875,0.0859375,-0.23681640625,-6.06536865234375,6.40869140625,10.4827880859375,14.6484375,-15.234375,-62.6953125
13.855110168457031,1680681523.2614195,-0.093994140625,-0.043212890625,-0.294677734375,8.55255126953125,19.439697265625,1.4495849609375,12.01171875,-2.34375,-86.42578125
13.905110597610474,1680681523.31142,-0.176513671875,0.167724609375,-0.965087890625,-9.0789794921875,11.31439208984375,-1.24359130859375,15.087890625,1.318359375,-56.396484375
13.955111980438232,1680681523.3614213,-0.07080078125,-0.13427734375,-0.478515625,16.7999267578125,-9.31549072265625,1.007080078125,15.087890625,-10.986328125,-48.779296875
14.005112886428833,1680681523.4114223,-0.146240234375,-0.115478515625,-0.150634765625,-1.708984375,8.0413818359375,8.81195068359375,14.208984375,-12.158203125,-59.326171875
14.055113554000854,1680681523.461423,0.08349609375,-0.22119140625,-1.0087890625,8.0413818359375,-3.07464599609375,11.87896728515625,13.623046875,-8.349609375,-57.568359375
14.105114221572876,1680681523.5114236,-0.04443359375,0.173583984375,-1.591064453125,9.1400146484375,2.03704833984375,15.90728759765625,12.890625,-9.9609375,-68.84765625
14.155115842819214,1680681523.5614252,-0.19140625,-0.00830078125,-0.897705078125,2.05230712890625,18.6920166015625,19.82879638671875,14.208984375,-2.490234375,-50.244140625
14.205117464065552,1680681523.6114268,-0.26123046875,-0.07568359375,-0.195068359375,-15.38848876953125,-8.82720947265625,23.30780029296875,13.623046875,-14.794921875,-50.537109375
14.255117416381836,1680681523.6614268,0.0087890625,-0.045654296875,-1.614013671875,7.60650634765625,19.37103271484375,25.71868896484375,12.451171875,-17.431640625,-70.166015625
14.305118560791016,1680681523.711428,0.35986328125,0.200927734375,-1.453369140625,-4.4403076171875,-13.78631591796875,27.9388427734375,14.208984375,-2.490234375,-61.669921875
14.355119705200195,1680681523.761429,-0.405517578125,-0.4892578125,-0.572021484375,-21.17156982421875,34.0728759765625,24.4293212890625,15.8203125,-9.9609375,-58.88671875
14.405120849609375,1680681523.8114302,0.045166015625,0.374267578125,-1.74560546875,11.84844970703125,-1.2969970703125,12.04681396484375,14.501953125,-15.380859375,-66.650390625
14.455121278762817,1680681523.8614306,0.335205078125,0.247802734375,-0.834716796875,24.627685546875,-20.8740234375,11.46697998046875,12.01171875,5.56640625,-78.22265625
14.505122661590576,1680681523.911432,0.085693359375,0.01611328125,-0.403564453125,19.561767578125,-1.190185546875,11.993408203125,15.52734375,-1.171875,-51.26953125
14.555123805999756,1680681523.9614332,-0.30126953125,-0.2275390625,-0.396484375,-21.64459228515625,28.55682373046875,23.3917236328125,15.52734375,-12.01171875,-53.90625
14.605124473571777,1680681524.0114338,0.163330078125,0.0048828125,-1.14697265625,-1.953125,1.83868408203125,25.23040771484375,15.087890625,-7.177734375,-60.498046875
14.65512466430664,1680681524.061434,-0.359619140625,0.22021484375,-0.86767578125,-0.06103515625,14.46533203125,23.44512939453125,13.4765625,-10.25390625,-62.109375
14.705124855041504,1680681524.1114342,0.04296875,0.25927734375,-1.140380859375,-1.88446044921875,3.70025634765625,23.25439453125,14.0625,1.46484375,-57.421875
14.755124807357788,1680681524.1614342,0.04443359375,-0.19775390625,-1.432861328125,-12.9241943359375,20.95794677734375,28.55682373046875,15.673828125,-12.158203125,-48.486328125
14.805126190185547,1680681524.2114356,0.252685546875,0.346923828125,-1.068603515625,-5.04302978515625,-10.16998291015625,23.406982421875,12.3046875,-12.890625,-72.94921875
14.855127096176147,1680681524.2614365,0.24658203125,-0.03369140625,-0.9619140625,-10.2691650390625,1.5106201171875,22.491455078125,13.76953125,-2.9296875,-58.59375
14.905128479003906,1680681524.3114378,-0.29833984375,-0.041748046875,-1.3232421875,-9.84954833984375,-1.27410888671875,10.52093505859375,14.0625,-7.91015625,-58.59375
14.955129146575928,1680681524.3614385,-0.10693359375,0.353759765625,-0.7080078125,-4.5318603515625,13.4735107421875,11.2762451171875,12.744140625,-13.623046875,-70.751953125
15.00512981414795,1680681524.4114392,-0.10595703125,-0.080322265625,-1.11865234375,-5.43975830078125,-15.07568359375,11.8408203125,12.158203125,8.935546875,-70.458984375
15.055130958557129,1680681524.4614403,-0.059326171875,0.132568359375,-1.28564453125,-30.426025390625,-7.04193115234375,16.02935791015625,15.087890625,-2.197265625,-47.900390625
15.105132579803467,1680681524.511442,-0.171630859375,0.111083984375,-0.851318359375,-8.84246826171875,10.8489990234375,19.78302001953125,12.890625,-8.49609375,-59.765625
15.155133962631226,1680681524.5614433,-0.49658203125,-0.17333984375,-0.80029296875,-31.07452392578125,4.7760009765625,22.63641357421875,11.279296875,-4.833984375,-58.447265625
15.205135107040405,1680681524.6114445,-0.25830078125,-0.068115234375,-0.2666015625,-7.4005126953125,18.59283447265625,15.05279541015625,11.279296875,-3.076171875,-71.337890625
15.255135536193848,1680681524.661445,-0.14501953125,-0.039794921875,-0.990966796875,-20.86639404296875,24.7344970703125,16.77703857421875,12.451171875,-1.904296875,-49.658203125
15.30513620376587,1680681524.7114456,0.261962890625,0.064208984375,2.0,-1.0986328125,-12.75634765625,-1.70135498046875,11.71875,-12.890625,-57.12890625
15.35513710975647,1680681524.7614465,-0.197021484375,0.079833984375,-1.390380859375,-2.28118896484375,-16.21246337890625,-1.94549560546875,9.375,1.171875,-72.65625
15.405137777328491,1680681524.8114471,-0.072265625,0.034423828125,-1.23291015625,-6.1187744140625,9.26971435546875,-7.720947265625,9.66796875,-3.515625,-60.9375
15.455138921737671,1680681524.8614483,0.271484375,-0.188720703125,2.0,-13.55743408203125,19.32525634765625,-7.02667236328125,10.107421875,-11.865234375,-64.599609375
15.505140542984009,1680681524.91145,-0.0380859375,-0.5634765625,-0.904052734375,-3.1585693359375,3.204345703125,2.55584716796875,8.203125,7.03125,-79.98046875
15.555140733718872,1680681524.96145,-0.123291015625,-0.0126953125,-0.722900390625,-13.092041015625,13.641357421875,1.73187255859375,10.107421875,1.318359375,-50.244140625
15.605141878128052,1680681525.0114512,0.154541015625,0.3935546875,-1.918701171875,5.18798828125,4.0740966796875,-0.37384033203125,11.1328125,-9.08203125,-56.25
15.655142307281494,1680681525.0614517,-0.1591796875,-0.080810546875,-1.31884765625,2.49481201171875,12.3748779296875,0.6256103515625,10.400390625,-4.541015625,-61.083984375
15.705142259597778,1680681525.1114516,0.474853515625,0.149169921875,-1.32470703125,-11.84844970703125,-25.3448486328125,1.86920166015625,10.400390625,-7.763671875,-68.994140625
15.75514268875122,1680681525.161452,0.192138671875,0.23388671875,-1.428466796875,-0.03814697265625,10.5438232421875,3.05938720703125,11.71875,0.29296875,-50.09765625
15.805142879486084,1680681525.2114522,0.11669921875,0.31689453125,-1.593994140625,22.8271484375,34.1644287109375,4.6539306640625,10.107421875,-12.744140625,-55.224609375
15.855144500732422,1680681525.2614539,0.1484375,-0.132080078125,-1.301513671875,-13.5498046875,-14.15252685546875,8.06427001953125,9.66796875,0.29296875,-76.7578125
15.90514612197876,1680681525.3114555,0.2490234375,-0.116455078125,-1.631103515625,-11.05499267578125,-19.22607421875,3.9520263671875,10.986328125,-5.126953125,-62.548828125
15.95514726638794,1680681525.3614566,0.015869140625,0.052490234375,-0.128173828125,9.20867919921875,23.86474609375,5.30242919921875,10.25390625,-12.01171875,-65.91796875
16.005147218704224,1680681525.4114566,0.437255859375,-0.117919921875,-1.56396484375,0.9765625,-27.1453857421875,6.6680908203125,8.349609375,8.935546875,-78.662109375
16.055147171020508,1680681525.4614565,-0.249267578125,-0.107421875,-0.15966796875,-4.63104248046875,-2.9449462890625,17.8070068359375,10.400390625,-0.439453125,-50.537109375
16.10514736175537,1680681525.5114567,0.3115234375,0.241455078125,-1.211181640625,-8.6822509765625,-8.8043212890625,12.47406005859375,10.107421875,-9.814453125,-59.912109375
16.155147552490234,1680681525.561457,0.24755859375,0.03173828125,-1.230224609375,1.190185546875,1.39617919921875,6.2713623046875,8.056640625,-4.833984375,-60.205078125
16.205148696899414,1680681525.611458,-0.009521484375,0.379638671875,-1.35498046875,-1.57928466796875,1.06048583984375,2.9144287109375,7.03125,-1.7578125,-70.8984375
16.255149126052856,1680681525.6614585,-0.154296875,-0.352783203125,-0.536865234375,-19.12689208984375,15.411376953125,2.18963623046875,10.546875,0.5859375,-51.85546875
16.305150985717773,1680681525.7114604,-0.03466796875,-0.154541015625,-0.689208984375,5.39398193359375,-0.8544921875,-1.12152099609375,9.66796875,-12.59765625,-55.37109375
16.355152130126953,1680681525.7614615,0.064453125,0.154052734375,0.037841796875,10.90240478515625,28.75518798828125,-0.83160400390625,7.32421875,1.46484375,-72.0703125
16.405152797698975,1680681525.8114622,0.07958984375,0.66650390625,-1.889404296875,20.42388916015625,-14.70184326171875,1.94549560546875,9.66796875,-3.80859375,-61.5234375
16.45515275001526,1680681525.861462,0.00146484375,-0.001953125,-0.703369140625,-5.31005859375,16.24298095703125,3.9825439453125,8.642578125,-12.451171875,-74.267578125
16.505154371261597,1680681525.9114637,0.190673828125,0.044921875,-1.164794921875,4.99725341796875,-1.80816650390625,2.197265625,9.814453125,9.521484375,-67.529296875
16.55515480041504,1680681525.9614642,-0.0322265625,0.044921875,-1.9716796875,0.091552734375,-21.270751953125,2.61688232421875,11.865234375,-4.541015625,-48.193359375
16.605154991149902,1680681526.0114644,-0.12451171875,0.441162109375,-0.74755859375,22.064208984375,8.65936279296875,4.21905517578125,10.693359375,-5.712890625,-61.376953125
16.655155420303345,1680681526.0614648,0.1572265625,0.21875,-0.588623046875,0.5950927734375,15.3656005859375,4.974365234375,9.375,-5.2734375,-59.765625
16.705156326293945,1680681526.1114657,-0.002197265625,-0.38330078125,-0.274169921875,-24.261474609375,-3.204345703125,8.1024169921875,8.349609375,3.955078125,-67.822265625
16.755157470703125,1680681526.1614668,0.24951171875,0.110595703125,-0.89892578125,1.65557861328125,1.1138916015625,1.33514404296875,9.521484375,-8.642578125,-49.072265625
16.805158376693726,1680681526.2114677,0.544921875,0.29931640625,-1.79443359375,9.54437255859375,2.52532958984375,3.76129150390625,6.005859375,-10.107421875,-75.146484375
16.855159759521484,1680681526.2614691,0.1376953125,-0.12744140625,-0.56201171875,-9.8114013671875,5.39398193359375,10.43701171875,9.375,-3.22265625,-59.765625
16.905160188674927,1680681526.3114696,0.233642578125,-0.079345703125,-1.546630859375,-16.4947509765625,-2.25067138671875,14.45770263671875,8.056640625,-9.521484375,-61.083984375
16.95516037940979,1680681526.3614697,-0.37158203125,0.195068359375,-0.611083984375,-2.2430419921875,8.636474609375,8.11004638671875,7.177734375,-1.025390625,-88.037109375
17.005162239074707,1680681526.4114716,-0.10546875,0.37255859375,-0.86181640625,11.65771484375,10.3912353515625,6.561279296875,10.107421875,5.126953125,-56.103515625
17.055163383483887,1680681526.4614727,0.431884765625,0.35498046875,-0.794921875,7.781982421875,-13.51165771484375,2.29644775390625,9.521484375,-8.056640625,-55.224609375
17.105164766311646,1680681526.5114741,-0.25732421875,-0.366455078125,-0.50537109375,-15.045166015625,36.3311767578125,0.396728515625,9.521484375,-3.076171875,-61.083984375
17.15516495704651,1680681526.5614743,0.038818359375,0.243896484375,-0.875244140625,-0.52642822265625,-16.73126220703125,-3.07464599609375,7.177734375,-4.541015625,-69.873046875
17.205166339874268,1680681526.6114757,-0.11669921875,0.114013671875,-1.15869140625,13.8702392578125,-7.3394775390625,-3.1585693359375,9.08203125,-0.5859375,-49.51171875
17.25516700744629,1680681526.6614764,-0.2451171875,-0.205078125,-0.1669921875,-1.129150390625,32.2113037109375,2.74658203125,8.203125,-13.18359375,-60.3515625
17.305168628692627,1680681526.711478,0.639404296875,0.22265625,-1.037353515625,2.90679931640625,-44.63958740234375,7.37762451171875,7.470703125,2.490234375,-63.720703125
17.35516905784607,1680681526.7614784,-0.303955078125,-0.259033203125,-0.169921875,-15.20538330078125,-7.86590576171875,8.4991455078125,9.375,-6.15234375,-61.23046875
17.40517020225525,1680681526.8114796,-0.13916015625,0.1337890625,-0.63671875,2.044677734375,12.6190185546875,6.85882568359375,6.73828125,-6.4453125,-83.7890625
17.455171585083008,1680681526.861481,-0.0576171875,0.16748046875,-0.229736328125,-14.27459716796875,10.7574462890625,6.29425048828125,8.49609375,6.15234375,-59.1796875
17.50517225265503,1680681526.9114816,0.115966796875,0.26953125,-1.809814453125,1.60980224609375,-18.9056396484375,-0.32806396484375,7.763671875,-8.056640625,-54.345703125
17.555172204971313,1680681526.9614816,0.140625,0.586669921875,-0.5439453125,-5.37109375,13.90838623046875,6.5155029296875,7.6171875,-3.80859375,-61.5234375
17.605172634124756,1680681527.011482,0.291259765625,0.44384765625,-1.105224609375,11.22283935546875,12.5885009765625,0.80108642578125,7.32421875,-7.32421875,-67.3828125
17.65517282485962,1680681527.0614822,0.388427734375,0.371337890625,-1.212646484375,12.1917724609375,-19.81353759765625,4.23431396484375,8.935546875,0.146484375,-51.416015625
17.70517373085022,1680681527.111483,-0.464599609375,-0.75634765625,-1.161376953125,-19.30999755859375,5.43212890625,6.6680908203125,7.763671875,-13.623046875,-59.912109375
17.755175352096558,1680681527.1614847,0.267333984375,0.277587890625,-1.08740234375,-25.5126953125,-10.345458984375,-2.9144287109375,7.763671875,2.783203125,-67.236328125
17.805176258087158,1680681527.2114856,-0.373779296875,-0.400390625,-0.187255859375,-9.98687744140625,25.62713623046875,-5.37109375,7.763671875,-4.833984375,-61.083984375
17.855177879333496,1680681527.2614872,-0.160400390625,-0.03564453125,-0.75927734375,-1.12152099609375,-3.94439697265625,-5.18798828125,5.419921875,-9.228515625,-81.298828125
17.905179262161255,1680681527.3114886,-0.3388671875,0.136474609375,-0.946533203125,9.91058349609375,6.0272216796875,1.53350830078125,8.056640625,8.056640625,-61.376953125
17.95517921447754,1680681527.3614886,0.076904296875,0.028564453125,-1.2158203125,-10.55145263671875,-2.13623046875,-0.20599365234375,9.521484375,-8.056640625,-51.416015625
18.00517964363098,1680681527.411489,-0.09716796875,0.205322265625,-0.4521484375,-2.86102294921875,-6.49261474609375,-3.2958984375,7.177734375,-5.419921875,-61.962890625
18.05518102645874,1680681527.4614904,0.12548828125,0.54345703125,-1.208740234375,23.17047119140625,-6.77490234375,-13.397216796875,7.177734375,-6.884765625,-66.943359375
18.105181217193604,1680681527.5114906,-0.024658203125,-0.1552734375,-0.36083984375,-4.37164306640625,7.31658935546875,-10.833740234375,9.08203125,2.05078125,-51.5625
18.155181407928467,1680681527.5614908,-0.248046875,0.128662109375,-0.171875,-2.15911865234375,-2.960205078125,-8.38470458984375,9.521484375,-13.916015625,-56.103515625
18.205182790756226,1680681527.6114922,-0.06640625,-0.30712890625,-0.552490234375,0.67138671875,34.43145751953125,-7.4920654296875,7.6171875,2.63671875,-66.50390625
18.25518274307251,1680681527.661492,0.15283203125,0.050537109375,-1.29248046875,-7.965087890625,-11.3372802734375,-1.27410888671875,7.470703125,-4.248046875,-60.205078125
18.30518412590027,1680681527.7114935,-0.206787109375,0.177734375,-1.036376953125,18.2647705078125,7.68280029296875,2.99835205078125,8.056640625,-12.158203125,-70.166015625
18.355185747146606,1680681527.761495,0.51806640625,0.015380859375,-1.587158203125,-0.9918212890625,-23.62823486328125,7.60650634765625,8.935546875,9.814453125,-68.115234375
18.40518617630005,1680681527.8114955,0.2431640625,0.109130859375,-1.43115234375,6.99615478515625,15.96832275390625,7.080078125,10.693359375,-5.419921875,-49.658203125
18.455186128616333,1680681527.8614955,0.456298828125,0.44775390625,-1.97705078125,25.96282958984375,-12.64190673828125,4.2877197265625,8.49609375,-4.98046875,-62.109375
18.50518774986267,1680681527.911497,-0.1337890625,0.27294921875,-0.892333984375,-9.27734375,-1.495361328125,1.54876708984375,9.228515625,-8.056640625,-64.013671875
18.555188179016113,1680681527.9614975,0.474853515625,0.163330078125,-0.4404296875,-4.9896240234375,-34.8052978515625,2.9144287109375,9.9609375,2.63671875,-54.19921875
18.605188846588135,1680681528.0114982,-0.414794921875,-0.476318359375,-1.042236328125,-21.64459228515625,9.20867919921875,6.16455078125,9.66796875,-12.59765625,-54.78515625
18.65518879890442,1680681528.0614982,0.1220703125,0.148193359375,-1.611328125,-5.523681640625,-24.1546630859375,11.505126953125,8.642578125,1.904296875,-73.095703125
18.70518970489502,1680681528.111499,0.2314453125,0.01611328125,-0.5869140625,-5.45501708984375,18.04351806640625,6.9427490234375,9.521484375,-3.955078125,-62.548828125
18.75519037246704,1680681528.1614997,0.13037109375,0.192626953125,-0.76611328125,3.448486328125,20.8740234375,6.69097900390625,7.763671875,-12.158203125,-72.802734375
18.80519151687622,1680681528.211501,0.18505859375,0.010986328125,-0.72314453125,-5.68389892578125,5.706787109375,2.105712890625,8.7890625,8.7890625,-64.74609375
18.85519242286682,1680681528.2615018,-0.32958984375,-0.042236328125,-0.5712890625,10.3607177734375,24.63531494140625,-0.6256103515625,9.66796875,-6.15234375,-51.26953125
18.90519404411316,1680681528.3115034,-0.238037109375,-0.039306640625,-0.41357421875,-12.16888427734375,-10.1776123046875,6.5155029296875,8.49609375,-4.1015625,-61.5234375
18.9551944732666,1680681528.3615038,-0.1220703125,0.35107421875,-1.28369140625,7.87353515625,-3.89862060546875,4.29534912109375,9.66796875,-7.6171875,-62.40234375
19.00519633293152,1680681528.4115057,-0.20068359375,0.17578125,-1.19677734375,-2.6397705078125,-21.148681640625,9.59014892578125,8.642578125,3.662109375,-56.396484375
19.05519676208496,1680681528.4615061,0.17138671875,-0.0673828125,-0.2978515625,-3.9520263671875,14.2669677734375,3.12042236328125,9.08203125,-10.83984375,-53.3203125
19.105197429656982,1680681528.5115068,0.125732421875,-0.53271484375,-1.46875,-26.1688232421875,5.2490234375,-1.556396484375,7.6171875,0.5859375,-76.171875
19.155198574066162,1680681528.561508,0.5048828125,-0.00732421875,-0.91796875,-4.7607421875,-5.7830810546875,1.74713134765625,8.349609375,-4.541015625,-61.376953125
19.20519995689392,1680681528.6115093,0.320068359375,0.145751953125,-0.409423828125,4.8828125,46.8597412109375,7.62176513671875,7.470703125,-10.107421875,-75.146484375
19.255200147628784,1680681528.6615095,0.515869140625,0.352783203125,-1.19580078125,8.9263916015625,-16.67022705078125,5.157470703125,9.521484375,8.056640625,-61.669921875
19.305201530456543,1680681528.711511,-1.0302734375,0.051025390625,-1.238037109375,6.439208984375,-5.63812255859375,4.38690185546875,9.66796875,-7.6171875,-53.3203125
19.3552029132843,1680681528.7615123,-0.06005859375,0.3544921875,-0.64697265625,-14.312744140625,4.33349609375,-1.068115234375,8.056640625,-1.904296875,-61.376953125
19.40520429611206,1680681528.8115137,-0.23583984375,-0.15087890625,-0.396728515625,8.36181640625,17.25006103515625,3.4332275390625,8.056640625,-6.298828125,-69.580078125
19.455204248428345,1680681528.8615136,0.5107421875,0.69921875,-0.940185546875,-0.3814697265625,-30.46417236328125,-1.02996826171875,10.25390625,0.29296875,-50.390625
19.505204439163208,1680681528.9115138,0.05078125,-0.16455078125,-0.510986328125,6.8206787109375,-2.29644775390625,0.31280517578125,8.642578125,-11.865234375,-59.326171875
19.55520486831665,1680681528.9615142,0.090576171875,0.529052734375,-0.861572265625,7.68280029296875,18.5699462890625,-2.15911865234375,6.73828125,3.515625,-65.625
19.60520577430725,1680681529.0115151,-0.20654296875,-0.896484375,-1.7109375,-1.48773193359375,-1.15966796875,11.28387451171875,7.177734375,-4.833984375,-60.498046875
19.65520691871643,1680681529.0615163,-0.887939453125,0.613525390625,-1.3916015625,-5.37872314453125,23.223876953125,4.53948974609375,6.73828125,-9.66796875,-79.6875
19.70520782470703,1680681529.1115172,-0.016845703125,0.03125,2.0,2.76947021484375,-31.47125244140625,6.103515625,8.7890625,8.203125,-61.81640625
19.755208015441895,1680681529.1615174,0.032958984375,0.44482421875,-0.806396484375,4.35638427734375,-12.68768310546875,1.8157958984375,10.107421875,-7.470703125,-53.466796875
19.80520796775818,1680681529.2115173,-0.037353515625,-0.16064453125,-0.539794921875,-6.6070556640625,-2.0904541015625,4.39453125,7.6171875,-3.80859375,-62.98828125
19.855207920074463,1680681529.2615173,-0.093994140625,-0.0234375,-0.788330078125,-4.82177734375,-0.3662109375,-1.25885009765625,7.03125,-5.859375,-64.453125
19.905208587646484,1680681529.311518,0.150146484375,-0.610107421875,-1.80517578125,-12.65716552734375,-20.40863037109375,14.8468017578125,9.375,3.80859375,-56.8359375
19.955210208892822,1680681529.3615196,0.087158203125,0.52490234375,-1.525390625,14.8162841796875,-10.6658935546875,-4.150390625,8.49609375,-10.25390625,-53.90625
20.005211114883423,1680681529.4115205,-0.375244140625,-0.09375,-0.247314453125,-2.410888671875,0.20599365234375,-3.83758544921875,6.73828125,1.46484375,-76.46484375
20.055212259292603,1680681529.4615216,0.024169921875,0.28173828125,-1.4765625,-17.14324951171875,-22.796630859375,6.43157958984375,8.056640625,-2.783203125,-62.548828125
20.105213403701782,1680681529.5115228,0.304443359375,0.116943359375,2.0,-8.3770751953125,-33.68377685546875,1.68609619140625,8.349609375,-10.986328125,-66.943359375
20.155214548110962,1680681529.561524,0.92822265625,-0.1015625,-1.0146484375,18.8446044921875,26.9927978515625,4.66156005859375,6.591796875,11.865234375,-75.146484375
20.205215215682983,1680681529.6115246,0.107177734375,-0.135986328125,-0.208740234375,-9.46807861328125,23.13995361328125,-3.71551513671875,8.203125,-1.46484375,-50.09765625
20.255216360092163,1680681529.6615257,0.15380859375,-0.087890625,-0.944580078125,-3.7841796875,-16.04461669921875,-2.25830078125,8.7890625,-5.56640625,-61.5234375
20.3052179813385,1680681529.7115273,1.175048828125,-0.5947265625,-0.73583984375,-37.33062744140625,-19.1650390625,3.83758544921875,8.203125,-3.80859375,-60.05859375
20.355218172073364,1680681529.7615275,-0.193603515625,-0.592041015625,-1.0009765625,-7.6904296875,-28.63311767578125,3.08990478515625,6.591796875,1.025390625,-71.923828125
20.405218362808228,1680681529.8115277,-0.086181640625,0.474609375,2.0,5.2490234375,-24.07073974609375,-0.55694580078125,9.814453125,-4.541015625,-49.072265625
20.455219984054565,1680681529.8615294,-0.284423828125,0.27685546875,-0.761962890625,0.34332275390625,5.706787109375,-1.74713134765625,7.6171875,-13.4765625,-63.57421875
20.505221366882324,1680681529.9115307,0.30126953125,-0.056396484375,-0.763671875,10.4522705078125,-4.9896240234375,0.0152587890625,8.056640625,2.783203125,-64.599609375
20.555222272872925,1680681529.9615316,-0.013671875,-0.374755859375,-0.9091796875,-13.5498046875,-7.65228271484375,2.44140625,8.7890625,-4.6875,-61.5234375
20.605222702026367,1680681530.011532,-0.2060546875,0.09423828125,-0.974365234375,-3.36456298828125,7.568359375,9.20867919921875,6.591796875,-11.279296875,-76.611328125
20.655223608016968,1680681530.061533,0.303955078125,0.62353515625,-1.567138671875,13.48876953125,-11.2457275390625,6.5460205078125,7.03125,11.1328125,-68.84765625
20.70522379875183,1680681530.1115332,-0.26171875,0.003662109375,-1.397705078125,-1.495361328125,9.82666015625,-0.0762939453125,10.107421875,-3.076171875,-48.486328125
20.75522470474243,1680681530.161534,-0.126220703125,-0.133544921875,-0.86669921875,9.307861328125,-6.805419921875,6.76727294921875,8.349609375,-5.126953125,-60.205078125
20.80522632598877,1680681530.2115357,0.620849609375,0.082275390625,2.0,0.54931640625,-23.20098876953125,17.333984375,6.4453125,-3.80859375,-58.59375
20.855226278305054,1680681530.2615356,-0.13623046875,-0.143798828125,-1.376953125,-1.42669677734375,-1.4801025390625,4.90570068359375,7.03125,1.46484375,-70.3125
20.90522789955139,1680681530.3115373,0.38330078125,0.20556640625,-0.515380859375,11.474609375,-13.69476318359375,3.91387939453125,8.49609375,-2.63671875,-47.4609375
20.955228090286255,1680681530.3615375,-0.194091796875,-0.256103515625,-1.02001953125,-22.72796630859375,7.080078125,2.4566650390625,6.4453125,-12.59765625,-63.8671875
21.005228519439697,1680681530.411538,0.420166015625,0.0068359375,-1.300048828125,-0.9002685546875,-28.900146484375,6.16455078125,6.884765625,3.955078125,-70.166015625
21.05522847175598,1680681530.4615378,-0.11328125,0.09033203125,-0.822998046875,-5.25665283203125,1.36566162109375,1.06048583984375,7.32421875,-2.34375,-60.3515625
21.10522961616516,1680681530.511539,-0.1591796875,0.0947265625,-0.658203125,8.1329345703125,8.44573974609375,0.63323974609375,6.884765625,-10.400390625,-68.701171875
21.15523076057434,1680681530.5615401,0.247314453125,-0.213134765625,-1.614013671875,-3.814697265625,-2.84576416015625,2.99835205078125,5.2734375,10.546875,-75.29296875
21.20523166656494,1680681530.611541,0.17333984375,0.09228515625,-1.609375,6.61468505859375,-10.13946533203125,3.3721923828125,9.08203125,-1.46484375,-48.92578125
21.25523328781128,1680681530.6615427,0.060546875,-0.2734375,-0.83935546875,-16.4337158203125,3.9825439453125,1.6632080078125,8.7890625,-6.73828125,-60.9375
21.30523419380188,1680681530.7115436,0.066650390625,0.41357421875,-1.83447265625,10.040283203125,-18.6614990234375,2.3956298828125,7.6171875,-4.1015625,-58.30078125
21.35523557662964,1680681530.761545,-0.390625,0.31103515625,-0.41943359375,8.79669189453125,47.12677001953125,8.01849365234375,7.177734375,1.025390625,-72.216796875
21.405237197875977,1680681530.8115466,-0.0478515625,0.52490234375,-1.31982421875,19.95086669921875,5.08880615234375,7.77435302734375,9.08203125,-3.515625,-47.75390625
21.455237865447998,1680681530.8615472,-0.1552734375,-0.309326171875,0.85791015625,-25.35247802734375,10.284423828125,2.78472900390625,7.32421875,-13.4765625,-63.57421875
21.505239486694336,1680681530.9115489,-0.048828125,-0.00146484375,-0.607177734375,-7.16400146484375,2.0751953125,-0.8697509765625,6.298828125,2.197265625,-64.892578125
21.555240392684937,1680681530.9615498,-0.049072265625,0.326171875,-0.991943359375,-2.838134765625,16.9830322265625,-0.26702880859375,7.32421875,-3.80859375,-60.3515625
21.60524034500122,1680681531.0115497,-0.182861328125,-0.092529296875,-0.826171875,-4.791259765625,21.8505859375,-5.06591796875,5.859375,-12.3046875,-76.46484375
21.655241012573242,1680681531.0615504,0.7001953125,0.0791015625,-1.16943359375,-3.11279296875,-35.80474853515625,-4.67681884765625,7.32421875,11.1328125,-67.3828125
21.705241680145264,1680681531.111551,0.36376953125,0.197998046875,-1.727783203125,6.16455078125,-34.14154052734375,-1.45721435546875,8.935546875,1.318359375,-49.365234375
21.75524353981018,1680681531.161553,0.164794921875,-0.11962890625,-0.219970703125,4.5013427734375,15.15960693359375,1.60980224609375,7.6171875,-6.73828125,-60.05859375
21.806739807128906,1680681531.2130492,-0.21875,0.02294921875,-1.00830078125,-13.25225830078125,11.2457275390625,-1.45721435546875,6.73828125,-3.515625,-59.1796875
21.856740474700928,1680681531.2630498,0.28076171875,0.527099609375,-1.155517578125,36.1480712890625,-1.10626220703125,-2.3193359375,7.177734375,-0.439453125,-71.044921875
21.906742095947266,1680681531.3130515,0.363525390625,0.21484375,-0.576171875,-1.2054443359375,-12.542724609375,-2.3193359375,9.66796875,-3.515625,-48.6328125
21.956742525100708,1680681531.363052,0.233154296875,-0.3251953125,-1.26953125,-15.66314697265625,-26.26800537109375,-5.126953125,7.91015625,-12.59765625,-60.9375
22.00674319267273,1680681531.4130526,0.420654296875,0.195068359375,-1.272216796875,6.88934326171875,-17.08984375,-3.4027099609375,7.763671875,3.076171875,-66.064453125
22.056744813919067,1680681531.4630542,-0.2041015625,-0.041748046875,-1.7119140625,3.631591796875,1.9073486328125,-1.99127197265625,8.056640625,-4.248046875,-60.791015625
22.10674500465393,1680681531.5130544,-0.087158203125,-0.20166015625,-0.5361328125,-22.31597900390625,9.5062255859375,-1.7242431640625,8.349609375,-10.693359375,-73.388671875
22.15674591064453,1680681531.5630553,0.2646484375,-0.420166015625,-1.262451171875,-14.91546630859375,-31.41021728515625,-1.7547607421875,8.203125,10.546875,-69.140625
22.206746816635132,1680681531.6130562,0.07275390625,-0.17138671875,-1.4033203125,-2.15911865234375,-4.7454833984375,-1.77764892578125,9.814453125,-1.318359375,-47.900390625
22.256747484207153,1680681531.6630569,-0.299072265625,0.0244140625,-0.594970703125,-21.9879150390625,-10.91766357421875,0.84686279296875,8.203125,-4.39453125,-60.9375
22.306787490844727,1680681531.7130969,-0.438232421875,0.07275390625,-0.502197265625,0.93841552734375,29.22821044921875,-1.31988525390625,8.7890625,-5.56640625,-59.1796875
22.356788396835327,1680681531.7630978,0.06396484375,-0.2529296875,-0.37548828125,-14.46533203125,2.47955322265625,0.54931640625,6.884765625,6.005859375,-66.650390625
22.406789541244507,1680681531.813099,0.385986328125,0.459716796875,-1.287109375,0.40435791015625,-27.9083251953125,-1.07574462890625,8.349609375,-5.419921875,-47.900390625
22.456790447235107,1680681531.8630998,0.071533203125,0.223388671875,-0.84814453125,5.9814453125,12.06207275390625,-4.98199462890625,7.32421875,-12.3046875,-63.28125
22.508079528808594,1680681531.914389,0.204345703125,-0.0654296875,-0.901123046875,0.5035400390625,-8.087158203125,-1.1749267578125,7.763671875,1.904296875,-58.447265625
22.558079957962036,1680681531.9643893,0.100341796875,-0.147216796875,-0.35302734375,2.532958984375,12.054443359375,1.2969970703125,8.056640625,-3.076171875,-59.912109375
22.608081340789795,1680681532.0143907,0.216796875,0.29345703125,-1.25830078125,-4.53948974609375,-1.1138916015625,0.86212158203125,6.15234375,-7.32421875,-80.2734375
22.658082246780396,1680681532.0643916,0.075927734375,0.042724609375,-0.854248046875,0.1068115234375,10.58197021484375,-0.51116943359375,8.203125,8.7890625,-60.3515625
22.70808219909668,1680681532.1143916,0.20556640625,0.496826171875,-1.7001953125,14.95361328125,-5.7830810546875,-2.69317626953125,8.7890625,-5.859375,-52.44140625
22.758082628250122,1680681532.164392,0.119873046875,0.2197265625,-1.43115234375,5.07354736328125,-17.5628662109375,-1.71661376953125,8.642578125,-3.369140625,-62.255859375
22.808083057403564,1680681532.2143924,-0.677978515625,0.2529296875,0.1083984375,10.9405517578125,19.78302001953125,-4.4708251953125,6.4453125,-5.859375,-64.74609375
22.858084201812744,1680681532.2643936,0.164794921875,0.337890625,-1.123779296875,12.38250732421875,-3.39508056640625,-0.0457763671875,8.49609375,4.98046875,-57.421875
22.908085823059082,1680681532.3143952,0.0283203125,-0.123779296875,-0.550048828125,-5.59234619140625,13.48114013671875,1.16729736328125,8.49609375,-9.9609375,-51.85546875
22.958087682724,1680681532.364397,0.21630859375,-0.124755859375,-0.952880859375,-4.150390625,1.251220703125,-1.33514404296875,6.15234375,-1.171875,-78.80859375
23.008087873458862,1680681532.4143972,-0.26318359375,-0.329833984375,-0.532958984375,15.5792236328125,9.2010498046875,-2.15911865234375,7.91015625,-3.22265625,-60.3515625
23.0580894947052,1680681532.4643989,0.5029296875,0.133544921875,-1.04052734375,6.35528564453125,-20.53070068359375,-1.65557861328125,7.177734375,-10.986328125,-65.478515625
23.108089447021484,1680681532.5143988,-0.240234375,-0.53857421875,-0.4599609375,-12.9547119140625,18.98193359375,-0.54168701171875,7.91015625,9.375,-77.05078125
23.158090591430664,1680681532.5644,-0.22607421875,0.346923828125,-1.16748046875,2.00653076171875,15.7928466796875,-0.34332275390625,9.08203125,-1.171875,-49.51171875
23.208092212677002,1680681532.6144016,0.18408203125,-0.057373046875,-1.4208984375,-1.3885498046875,-21.49200439453125,8.64410400390625,7.470703125,-6.298828125,-60.205078125
23.25809383392334,1680681532.6644032,-0.061279296875,0.2685546875,-1.757568359375,9.307861328125,-12.8021240234375,0.30517578125,7.03125,-5.2734375,-58.30078125
23.3080952167511,1680681532.7144046,0.07080078125,0.033935546875,-1.464111328125,-1.36566162109375,10.8642578125,-0.4425048828125,7.470703125,-0.439453125,-73.095703125
23.358095169067383,1680681532.7644045,0.76806640625,0.68701171875,2.0,21.3165283203125,-38.787841796875,1.73187255859375,9.521484375,-2.490234375,-49.072265625
23.408095359802246,1680681532.8144047,-0.12939453125,-0.154541015625,-0.376220703125,-7.11822509765625,22.23968505859375,3.39508056640625,7.6171875,-13.18359375,-62.98828125
23.45809578895569,1680681532.8644052,0.382080078125,-0.293701171875,-0.716552734375,1.68609619140625,-10.3759765625,2.84576416015625,9.375,2.05078125,-62.6953125
23.50809621810913,1680681532.9144056,0.49609375,0.1787109375,2.0,1.6021728515625,-27.00042724609375,2.3040771484375,8.056640625,-5.419921875,-61.669921875
23.558096885681152,1680681532.9644063,0.09521484375,0.25537109375,2.0,4.92095947265625,-39.48211669921875,-2.0294189453125,5.56640625,-7.03125,-84.375
23.608097791671753,1680681533.0144072,-0.3583984375,-0.066650390625,-1.010498046875,12.22991943359375,23.25439453125,-1.220703125,9.375,6.4453125,-58.30078125
23.65809941291809,1680681533.0644088,0.318115234375,-0.4765625,-0.974853515625,-14.53399658203125,-17.12799072265625,-1.617431640625,9.521484375,-7.177734375,-52.001953125
23.708100080490112,1680681533.1144094,0.274169921875,0.260009765625,-0.270751953125,1.46484375,9.0179443359375,0.55694580078125,7.91015625,-4.39453125,-60.9375
23.75810170173645,1680681533.164411,0.0888671875,-0.271484375,-0.2236328125,-14.95361328125,-8.453369140625,5.57708740234375,8.49609375,-6.73828125,-65.0390625
23.80810284614563,1680681533.2144122,0.314453125,0.13134765625,2.0,2.17437744140625,33.843994140625,5.31005859375,8.7890625,3.515625,-53.61328125
23.85810399055481,1680681533.2644134,0.123046875,-0.191162109375,-0.565185546875,-3.44085693359375,-31.097412109375,1.50299072265625,9.08203125,-11.42578125,-53.61328125
23.908105850219727,1680681533.3144152,-0.09716796875,-0.0029296875,-0.256591796875,-14.62554931640625,-7.7667236328125,5.859375,6.884765625,-5.712890625,-78.076171875
23.95810627937317,1680681533.3644156,-0.1513671875,-0.166748046875,-0.253173828125,-15.2587890625,18.66912841796875,6.43157958984375,9.08203125,-2.9296875,-60.3515625
24.008106470108032,1680681533.4144158,0.619873046875,0.26953125,-1.146484375,0.92315673828125,-29.16717529296875,5.30242919921875,7.91015625,-8.49609375,-62.40234375
24.05810785293579,1680681533.4644172,-0.607666015625,-0.41455078125,-0.47900390625,-21.026611328125,-0.91552734375,0.8544921875,6.4453125,7.03125,-84.08203125
24.108107805252075,1680681533.5144172,-0.156982421875,0.55126953125,-1.116455078125,-3.63922119140625,22.11761474609375,-0.9307861328125,10.25390625,2.9296875,-49.51171875
24.15810799598694,1680681533.5644174,0.322998046875,-0.09375,-1.15283203125,1.6021728515625,-2.38037109375,0.35858154296875,8.7890625,-6.73828125,-57.71484375
24.208107948303223,1680681533.6144173,-0.73583984375,-0.020263671875,-0.327392578125,-9.63592529296875,48.6297607421875,0.2899169921875,8.349609375,-4.248046875,-56.982421875
24.258108854293823,1680681533.6644182,-0.735595703125,-0.107177734375,-0.050048828125,-11.5966796875,6.927490234375,-0.06103515625,8.642578125,1.904296875,-69.873046875
24.308109998703003,1680681533.7144194,-0.16162109375,0.09326171875,-0.5703125,2.471923828125,12.359619140625,2.89154052734375,9.814453125,-5.126953125,-47.021484375
24.358110427856445,1680681533.7644198,0.3974609375,-0.427490234375,-1.15966796875,-15.89202880859375,17.39501953125,-1.28936767578125,6.884765625,-13.037109375,-69.873046875
24.408111095428467,1680681533.8144205,0.37646484375,0.570068359375,-0.539306640625,9.04083251953125,-3.4332275390625,1.76239013671875,10.25390625,-1.46484375,-57.421875
24.45811176300049,1680681533.8644211,-0.26953125,-0.5244140625,-0.228271484375,-20.98846435546875,18.15032958984375,-2.99835205078125,10.400390625,-8.935546875,-57.568359375
24.50811243057251,1680681533.9144218,-0.636474609375,0.3935546875,-0.66162109375,12.15362548828125,44.47174072265625,-1.12152099609375,7.763671875,3.662109375,-82.763671875
24.55811357498169,1680681533.964423,-0.00146484375,-0.048583984375,-1.6357421875,-1.07574462890625,-28.25927734375,2.84576416015625,11.42578125,1.171875,-48.33984375
24.608114004135132,1680681534.0144234,-0.065673828125,0.553955078125,-1.369384765625,4.29534912109375,-6.439208984375,0.95367431640625,10.83984375,-8.203125,-52.1484375
24.65811538696289,1680681534.0644248,0.232177734375,-0.086181640625,-0.786376953125,2.9144287109375,5.51605224609375,4.26483154296875,9.9609375,-4.1015625,-58.59375
24.708117246627808,1680681534.1144266,0.22900390625,0.023681640625,-1.06005859375,-8.6212158203125,-31.85272216796875,1.36566162109375,9.814453125,-6.005859375,-66.064453125
24.75811767578125,1680681534.164427,0.139404296875,0.567138671875,-0.62841796875,10.5743408203125,-8.8958740234375,2.57110595703125,12.01171875,1.171875,-48.046875
24.808118104934692,1680681534.2144275,0.419189453125,-0.34521484375,-0.9619140625,-5.1727294921875,6.20269775390625,7.39288330078125,11.42578125,-12.59765625,-54.4921875
24.85811948776245,1680681534.2644289,0.27880859375,0.738525390625,-1.552978515625,23.2696533203125,-16.73126220703125,0.48065185546875,11.42578125,3.22265625,-65.33203125
24.90812039375305,1680681534.3144298,-0.047119140625,-0.045166015625,-0.21826171875,10.92529296875,4.852294921875,2.4261474609375,10.546875,-3.80859375,-58.30078125
24.95812153816223,1680681534.364431,-0.3525390625,0.236572265625,-1.349853515625,-13.71002197265625,20.3857421875,7.14874267578125,8.642578125,-7.470703125,-80.419921875
25.00812268257141,1680681534.414432,-0.032470703125,0.169677734375,-0.77490234375,-5.82122802734375,-0.79345703125,3.53240966796875,10.546875,9.08203125,-57.71484375
25.058122873306274,1680681534.4644322,0.13134765625,0.30615234375,-0.373779296875,-3.76129150390625,-9.8876953125,-0.3204345703125,10.83984375,-4.98046875,-51.5625
25.108124494552612,1680681534.5144339,0.080078125,0.31298828125,-0.65234375,-2.31170654296875,16.05987548828125,1.28173828125,6.884765625,-1.611328125,-59.912109375
25.158125400543213,1680681534.5644348,-0.128662109375,-0.082763671875,-0.8486328125,1.86920166015625,-6.378173828125,5.0048828125,6.884765625,-4.833984375,-68.408203125
25.20812702178955,1680681534.6144364,-0.048828125,0.400146484375,-1.541748046875,-4.791259765625,-15.625,0.92315673828125,8.7890625,3.515625,-48.6328125
25.258127689361572,1680681534.664437,-0.23486328125,0.117919921875,-0.686279296875,9.2010498046875,-3.96728515625,-7.5836181640625,7.32421875,-10.83984375,-58.0078125
25.308128356933594,1680681534.7144377,0.233642578125,0.10107421875,-1.16943359375,-4.8675537109375,-6.35528564453125,-3.02886962890625,5.712890625,4.248046875,-73.974609375
25.358129024505615,1680681534.7644384,0.263427734375,0.266845703125,-1.142578125,-4.24957275390625,-34.41619873046875,-5.218505859375,8.056640625,-2.197265625,-61.083984375
25.408130168914795,1680681534.8144395,0.05615234375,0.038818359375,-1.287109375,17.27294921875,29.36553955078125,-9.65118408203125,6.15234375,-10.25390625,-72.94921875
25.458131313323975,1680681534.8644407,0.421630859375,0.172119140625,-0.60107421875,-4.1961669921875,9.5062255859375,-9.765625,7.6171875,10.546875,-64.453125
25.508132934570312,1680681534.9144423,0.222900390625,-0.0283203125,-0.262939453125,7.781982421875,1.22833251953125,-2.54058837890625,8.7890625,-5.859375,-51.5625
25.558133363723755,1680681534.9644427,0.077880859375,0.407470703125,-1.70654296875,9.918212890625,16.6473388671875,-1.39617919921875,7.763671875,-3.662109375,-63.134765625
25.608134269714355,1680681535.0144436,-0.04443359375,-0.138427734375,-0.653076171875,5.4779052734375,0.91552734375,-3.0670166015625,7.6171875,-6.4453125,-68.5546875
25.65813422203064,1680681535.0644436,-0.004150390625,-0.106689453125,-1.25048828125,-15.54107666015625,-26.00860595703125,-5.53131103515625,9.08203125,2.63671875,-52.44140625
25.7081356048584,1680681535.114445,0.145263671875,0.366943359375,-0.91748046875,9.82666015625,-16.96014404296875,-6.0272216796875,8.349609375,-11.572265625,-56.103515625
25.758136749267578,1680681535.164446,0.045654296875,-0.360595703125,-1.027587890625,-13.214111328125,8.758544921875,-6.6986083984375,7.6171875,4.1015625,-71.19140625
25.80813694000244,1680681535.2144463,0.35986328125,-0.009521484375,-0.747314453125,-0.12969970703125,-7.74383544921875,-4.43267822265625,8.203125,-3.515625,-61.23046875
25.8581383228302,1680681535.2644477,0.0322265625,0.09521484375,-0.90576171875,10.44464111328125,16.97540283203125,-0.9765625,6.4453125,-10.25390625,-80.2734375
25.908138275146484,1680681535.3144476,0.149658203125,0.162109375,-0.5068359375,7.16400146484375,9.521484375,5.40924072265625,8.935546875,8.349609375,-61.376953125
25.958138942718506,1680681535.3644483,-0.38525390625,0.05078125,-1.0361328125,5.11932373046875,-15.2130126953125,6.16455078125,9.375,-2.63671875,-49.21875
26.008140087127686,1680681535.4144495,-0.099853515625,-0.03515625,-0.68310546875,-7.3699951171875,-0.69427490234375,6.89697265625,10.25390625,-3.515625,-62.98828125
26.058916091918945,1680681535.4652255,0.454345703125,0.211669921875,-1.040771484375,12.50457763671875,-14.70947265625,4.21905517578125,8.7890625,-7.6171875,-62.40234375
26.10891604423523,1680681535.5152254,0.224365234375,-0.099853515625,-0.85693359375,1.6326904296875,12.35198974609375,8.15582275390625,9.375,5.56640625,-60.64453125
26.158917665481567,1680681535.565227,0.046142578125,-0.1318359375,-0.965576171875,-7.25555419921875,-10.52093505859375,1.64794921875,8.935546875,-9.521484375,-53.466796875
26.20891785621643,1680681535.6152272,-0.531982421875,0.0146484375,-0.850341796875,3.6468505859375,17.03643798828125,0.64849853515625,6.298828125,0.439453125,-76.611328125
26.258918523788452,1680681535.665228,-0.059814453125,0.322998046875,-0.616455078125,-1.33514404296875,2.38037109375,0.54931640625,8.49609375,-2.63671875,-61.81640625
26.308919191360474,1680681535.7152286,0.106689453125,-0.3271484375,-1.47021484375,-16.22772216796875,4.730224609375,5.2947998046875,7.91015625,-11.42578125,-73.2421875
26.358919143676758,1680681535.7652285,0.670654296875,0.1357421875,-1.06884765625,1.85394287109375,-4.73785400390625,1.495361328125,8.7890625,10.25390625,-64.74609375
26.408919095993042,1680681535.8152285,1.4794921875,-0.312255859375,-1.48681640625,23.39935302734375,-47.66845703125,14.90020751953125,9.375,-6.4453125,-51.85546875
26.45892071723938,1680681535.86523,-0.18701171875,-0.6142578125,-1.71240234375,-6.103515625,-3.88336181640625,4.9896240234375,8.056640625,-3.662109375,-62.255859375
26.508920669555664,1680681535.91523,-0.271484375,0.271240234375,-1.4873046875,1.51824951171875,-4.3487548828125,-0.72479248046875,7.6171875,-6.4453125,-67.67578125
26.558921337127686,1680681535.9652307,-0.542236328125,-0.2353515625,-0.848876953125,3.24249267578125,5.69915771484375,4.1961669921875,8.935546875,1.904296875,-53.173828125
26.608922481536865,1680681536.0152318,1.37548828125,0.934326171875,2.0,17.09747314453125,-49.64447021484375,3.34930419921875,7.177734375,-11.865234375,-56.689453125
26.65892243385315,1680681536.0652318,0.328369140625,-0.454833984375,-0.82080078125,-4.9591064453125,-14.65606689453125,7.59124755859375,6.884765625,4.248046875,-68.701171875
26.708922624588013,1680681536.115232,-0.27490234375,0.127197265625,0.090087890625,-17.02880859375,43.1976318359375,-2.92205810546875,8.7890625,-2.34375,-61.5234375
26.758923053741455,1680681536.1652324,-0.25927734375,-0.02734375,-0.77001953125,-5.77545166015625,10.7574462890625,-0.35858154296875,6.4453125,-9.375,-74.70703125
26.80892300605774,1680681536.2152324,0.659912109375,0.322265625,-1.2392578125,10.50567626953125,-7.65228271484375,2.47955322265625,8.203125,9.08203125,-64.16015625
26.858923196792603,1680681536.2652326,-0.28466796875,-0.027099609375,-1.63818359375,-7.2174072265625,-12.7105712890625,3.70025634765625,9.375,-5.56640625,-51.85546875
26.908923864364624,1680681536.3152332,-0.48291015625,0.563232421875,2.0,12.939453125,13.580322265625,-8.56781005859375,6.884765625,-3.076171875,-63.134765625
26.958924531936646,1680681536.365234,0.015869140625,-0.239013671875,-1.1533203125,-1.2054443359375,-9.14764404296875,-4.60052490234375,6.4453125,-5.2734375,-68.26171875
27.008925914764404,1680681536.4152353,0.19921875,0.174560546875,-0.702392578125,5.0506591796875,4.791259765625,-8.64410400390625,9.08203125,3.80859375,-53.02734375
27.058926343917847,1680681536.4652357,-0.220703125,-0.06591796875,0.2080078125,6.6070556640625,15.9149169921875,-11.25335693359375,8.203125,-9.375,-55.95703125
27.108927726745605,1680681536.515237,0.321533203125,-0.447509765625,2.0,-23.58245849609375,-31.97479248046875,-12.298583984375,6.73828125,3.515625,-72.65625
27.158928155899048,1680681536.5652375,-0.030029296875,0.4287109375,2.0,12.115478515625,15.2740478515625,-5.59234619140625,7.763671875,-3.662109375,-61.962890625
27.20892882347107,1680681536.6152382,-0.243896484375,-0.388916015625,-0.759765625,4.00543212890625,3.814697265625,-0.81634521484375,6.005859375,-10.107421875,-77.490234375
27.258930683135986,1680681536.66524,-0.029541015625,0.365966796875,-0.782958984375,-1.8463134765625,1.0833740234375,-0.28228759765625,8.056640625,11.279296875,-65.185546875
27.308931827545166,1680681536.7152412,-0.25048828125,-0.088134765625,-1.1650390625,2.4261474609375,10.39886474609375,-1.64031982421875,8.49609375,-3.80859375,-50.68359375
27.358932971954346,1680681536.7652423,0.59619140625,0.32763671875,-1.84814453125,10.711669921875,-28.37371826171875,4.40216064453125,6.4453125,-2.34375,-62.109375
27.408933639526367,1680681536.815243,-0.16162109375,0.2529296875,-0.779296875,5.80596923828125,16.5557861328125,3.42559814453125,7.03125,-6.73828125,-61.23046875
27.45893383026123,1680681536.8652432,0.369873046875,0.16845703125,-1.293701171875,-4.03594970703125,-9.70458984375,4.08172607421875,7.177734375,5.712890625,-59.619140625
27.508935689926147,1680681536.915245,0.058837890625,0.140869140625,-0.910400390625,-1.41143798828125,-13.32855224609375,0.3662109375,7.03125,-9.66796875,-53.90625
27.55893588066101,1680681536.9652452,-0.336181640625,-0.015625,-0.308837890625,-7.354736328125,1.38092041015625,-3.326416015625,4.833984375,-0.732421875,-76.611328125
27.60893702507019,1680681537.0152464,0.226318359375,0.03369140625,-0.99072265625,-6.09588623046875,12.32147216796875,-3.41033935546875,6.591796875,-4.833984375,-61.376953125
27.658937692642212,1680681537.065247,0.291748046875,-0.0830078125,-1.4609375,-5.2032470703125,-28.86962890625,-2.81524658203125,7.32421875,-11.42578125,-67.67578125
27.708938598632812,1680681537.115248,-0.0419921875,0.09521484375,-0.68701171875,1.22833251953125,12.99285888671875,-2.9296875,6.005859375,8.935546875,-76.318359375
27.75894021987915,1680681537.1652496,0.966064453125,0.15576171875,2.0,-2.01416015625,14.556884765625,-2.75421142578125,9.375,-2.63671875,-48.6328125
27.808940649032593,1680681537.21525,0.490234375,-0.15478515625,-0.790283203125,7.415771484375,-6.28662109375,4.66156005859375,8.7890625,-6.15234375,-61.5234375
27.858940601348877,1680681537.26525,-0.511474609375,0.02392578125,-0.778076171875,6.59942626953125,-3.204345703125,0.823974609375,8.49609375,-5.56640625,-60.05859375
27.90894055366516,1680681537.31525,0.056884765625,-0.086669921875,-1.38134765625,4.150390625,-17.730712890625,-3.13568115234375,6.298828125,4.541015625,-66.064453125
27.95894145965576,1680681537.3652508,0.215087890625,0.01318359375,-1.9306640625,-2.2735595703125,4.364013671875,-1.8157958984375,9.375,-7.91015625,-50.68359375
28.008941888809204,1680681537.4152513,0.43994140625,-0.1171875,-1.33447265625,-6.46209716796875,10.6201171875,4.52423095703125,7.763671875,-6.591796875,-77.197265625
28.058943271636963,1680681537.4652526,-0.12939453125,0.093505859375,-0.42724609375,6.072998046875,15.72418212890625,-0.70953369140625,10.107421875,-0.146484375,-60.205078125
28.108944416046143,1680681537.5152538,-0.3681640625,0.376220703125,-0.803466796875,2.51007080078125,9.6435546875,0.4730224609375,9.08203125,-6.73828125,-60.64453125
28.158944845199585,1680681537.5652542,0.056640625,0.058837890625,-0.53125,5.2947998046875,-29.754638671875,2.9449462890625,5.712890625,2.783203125,-88.330078125
28.208946466445923,1680681537.6152558,0.04736328125,0.25634765625,-0.791259765625,-1.74713134765625,12.44354248046875,1.01470947265625,9.814453125,4.833984375,-53.466796875
28.25894784927368,1680681537.6652572,0.52978515625,0.026123046875,-1.179931640625,-0.38909912109375,-17.73834228515625,0.67138671875,8.935546875,-6.884765625,-58.154296875
28.308948040008545,1680681537.7152574,0.76025390625,0.08056640625,-1.1875,14.03045654296875,-20.32470703125,-3.13568115234375,8.7890625,-2.63671875,-61.5234375
28.358948945999146,1680681537.7652583,0.24755859375,0.321044921875,-1.488525390625,-3.173828125,2.01416015625,-6.40106201171875,8.203125,-2.34375,-72.0703125
28.408949613571167,1680681537.815259,-0.01611328125,0.094482421875,-0.841796875,7.13348388671875,13.02337646484375,0.091552734375,10.83984375,-1.171875,-47.75390625
28.458950996398926,1680681537.8652604,0.436767578125,-0.078369140625,2.0,0.8392333984375,-36.712646484375,-3.60107421875,7.6171875,-14.0625,-64.16015625
28.508952140808105,1680681537.9152615,0.385498046875,0.04345703125,-1.86279296875,14.2059326171875,2.01416015625,-2.57110595703125,8.49609375,2.34375,-62.40234375
28.558953523635864,1680681537.965263,-0.626708984375,-0.144287109375,-0.088134765625,-3.50189208984375,28.656005859375,-8.30841064453125,8.349609375,-5.126953125,-59.619140625
28.608954429626465,1680681538.0152638,0.267822265625,-0.166259765625,-0.7548828125,-8.1939697265625,-14.862060546875,-1.0223388671875,6.73828125,-7.03125,-84.08203125
28.658956289291382,1680681538.0652657,0.170654296875,0.537841796875,-1.713623046875,1.678466796875,-22.30072021484375,-5.50079345703125,8.203125,7.91015625,-59.1796875
28.70895767211914,1680681538.115267,0.06494140625,0.014404296875,-0.863037109375,9.6282958984375,20.843505859375,1.800537109375,8.935546875,-6.591796875,-51.123046875
28.7589590549469,1680681538.1652684,-0.202880859375,0.169921875,-1.171875,1.07574462890625,-9.979248046875,-1.495361328125,8.49609375,-4.6875,-62.40234375
28.80895972251892,1680681538.215269,0.068359375,-0.0703125,-0.7783203125,-5.21087646484375,9.4757080078125,3.51715087890625,8.349609375,-5.419921875,-60.498046875
28.85896134376526,1680681538.2652707,-0.08203125,-0.020263671875,-1.180419921875,1.312255859375,-5.56182861328125,5.71441650390625,7.763671875,5.712890625,-63.134765625
28.908962965011597,1680681538.3152723,-0.250732421875,-0.129638671875,-0.107666015625,-16.54815673828125,13.153076171875,1.80816650390625,9.9609375,-7.6171875,-51.5625
28.95896291732788,1680681538.3652723,-0.326904296875,-0.00048828125,0.16455078125,-14.80865478515625,29.76226806640625,-0.9918212890625,5.859375,-6.15234375,-78.80859375
29.00896453857422,1680681538.415274,0.12744140625,0.26611328125,-1.2685546875,-4.26483154296875,0.57220458984375,-4.4097900390625,8.49609375,-2.34375,-61.5234375
29.058964490890503,1680681538.4652739,0.281494140625,0.081298828125,-0.281005859375,-0.30517578125,-14.73236083984375,-3.7078857421875,7.91015625,-10.83984375,-63.57421875
29.108964443206787,1680681538.5152738,0.057373046875,0.127197265625,-1.06787109375,-6.4544677734375,5.06591796875,-4.1656494140625,7.03125,8.203125,-82.6171875
29.15896439552307,1680681538.5652738,0.004638671875,0.102294921875,-0.895263671875,-3.8299560546875,-0.57220458984375,-4.39453125,9.521484375,1.318359375,-51.416015625
29.20896601676941,1680681538.6152754,0.00048828125,0.1298828125,-0.396484375,-3.44085693359375,11.07025146484375,-6.78253173828125,9.228515625,-6.591796875,-60.498046875
29.258967399597168,1680681538.6652768,0.309814453125,-0.1201171875,-0.825439453125,-2.41851806640625,-14.42718505859375,-6.2408447265625,8.203125,-4.39453125,-58.88671875
29.30896759033203,1680681538.715277,-0.177001953125,0.166259765625,-0.9921875,10.3302001953125,17.81463623046875,-5.62286376953125,6.73828125,0.5859375,-72.36328125
29.35896944999695,1680681538.7652788,0.009033203125,-0.078857421875,-0.695556640625,2.93731689453125,-3.21197509765625,-4.67681884765625,9.228515625,-5.126953125,-48.486328125
29.40896987915039,1680681538.8152792,0.1669921875,0.5244140625,-1.4814453125,21.8353271484375,4.57000732421875,-6.378173828125,7.91015625,-14.35546875,-59.47265625
29.45897126197815,1680681538.8652806,0.0234375,-0.1982421875,-0.927978515625,-12.0849609375,-13.336181640625,-1.15966796875,8.642578125,3.369140625,-65.771484375
29.508972644805908,1680681538.915282,-0.049560546875,0.188232421875,-1.17529296875,9.74273681640625,4.638671875,0.48828125,9.375,-4.1015625,-59.765625
29.558973789215088,1680681538.9652832,0.511962890625,0.228271484375,-1.39794921875,-7.62176513671875,-6.1492919921875,-0.946044921875,7.32421875,-11.42578125,-76.7578125
29.608975410461426,1680681539.0152848,0.312744140625,0.13330078125,-1.713134765625,3.8604736328125,-29.85382080078125,1.76239013671875,8.49609375,9.375,-63.28125
29.658976793289185,1680681539.0652862,-0.1669921875,-0.39208984375,-0.5625,-19.37103271484375,0.26702880859375,0.28228759765625,9.08203125,-4.98046875,-48.33984375
29.70897674560547,1680681539.115286,-0.525390625,-0.21875,-0.3857421875,-22.46856689453125,19.3023681640625,-3.04412841796875,8.49609375,-3.80859375,-61.5234375
29.758976936340332,1680681539.1652863,0.1875,0.486572265625,-1.30810546875,2.86865234375,-2.43377685546875,-10.31494140625,8.49609375,-5.859375,-59.765625
29.808977603912354,1680681539.215287,0.381591796875,0.022216796875,-0.847412109375,-1.6021728515625,2.3193359375,-8.6669921875,8.056640625,6.298828125,-64.599609375
29.858978509902954,1680681539.2652879,0.1123046875,0.13818359375,-0.86669921875,-6.59942626953125,21.240234375,-12.64190673828125,9.521484375,-6.884765625,-50.244140625
29.908978700637817,1680681539.315288,0.51953125,0.479736328125,2.0,13.641357421875,-13.85498046875,-14.617919921875,7.763671875,-4.248046875,-79.833984375
29.95897936820984,1680681539.3652887,-0.421875,-0.40673828125,-1.05126953125,-30.86090087890625,12.76397705078125,-8.697509765625,9.9609375,-2.05078125,-61.81640625
30.008979320526123,1680681539.4152887,-0.2109375,0.22705078125,-1.748779296875,0.26702880859375,-6.6680908203125,-3.6163330078125,7.763671875,-8.349609375,-64.892578125
30.058980703353882,1680681539.46529,0.11572265625,-0.22216796875,-0.84765625,-3.25775146484375,3.08990478515625,-5.19561767578125,5.419921875,6.298828125,-87.451171875
30.10898232460022,1680681539.5152917,0.0107421875,-0.08837890625,-0.968017578125,-4.85992431640625,-2.960205078125,-3.082275390625,8.935546875,7.177734375,-58.740234375
30.158983945846558,1680681539.5652933,0.200439453125,0.005615234375,-0.846435546875,2.5482177734375,-5.83648681640625,-6.61468505859375,9.66796875,-7.91015625,-55.37109375
30.20898461341858,1680681539.615294,-0.124267578125,-0.069580078125,-0.7236328125,-6.7138671875,13.7939453125,-8.49151611328125,9.375,-4.1015625,-63.8671875
30.25898551940918,1680681539.665295,-0.03466796875,0.078369140625,-1.341796875,5.2032470703125,-8.68988037109375,-9.9639892578125,8.203125,-7.91015625,-68.5546875
30.308985471725464,1680681539.7152948,-0.12939453125,0.016845703125,-0.548095703125,5.40924072265625,5.16510009765625,-8.96453857421875,10.400390625,1.025390625,-54.638671875
30.358985662460327,1680681539.765295,0.12060546875,0.43017578125,-0.431884765625,13.95416259765625,0.23651123046875,-7.91168212890625,9.521484375,-11.865234375,-56.103515625
30.408986568450928,1680681539.815296,0.024658203125,0.078369140625,-0.827880859375,8.72039794921875,16.9830322265625,-10.52093505859375,7.763671875,-1.025390625,-77.783203125
30.45898699760437,1680681539.8652964,0.14599609375,-0.002685546875,-1.219482421875,-1.25885009765625,-9.65118408203125,-7.3089599609375,9.66796875,-5.2734375,-62.40234375
30.508987188339233,1680681539.9152966,-0.12451171875,-0.000244140625,-1.48583984375,12.19940185546875,-3.3111572265625,-6.3018798828125,7.91015625,-13.76953125,-67.3828125
30.558988571166992,1680681539.965298,-0.34814453125,0.100830078125,-0.5439453125,13.28277587890625,7.537841796875,1.06048583984375,8.49609375,7.32421875,-77.63671875
30.608989715576172,1680681540.015299,-0.009033203125,0.163330078125,-1.05029296875,-12.725830078125,-3.94439697265625,-0.14495849609375,10.546875,-2.9296875,-50.9765625
30.658989667892456,1680681540.065299,-0.006591796875,0.20703125,-0.6474609375,5.04302978515625,-3.0975341796875,-5.67626953125,9.66796875,-8.7890625,-60.3515625
30.708991289138794,1680681540.1153007,0.158203125,0.169189453125,-0.939697265625,2.40325927734375,11.94000244140625,-2.61688232421875,8.49609375,-7.32421875,-59.1796875
30.75899314880371,1680681540.1653025,-0.2646484375,-0.244140625,-0.63232421875,-2.37274169921875,21.43096923828125,-7.37762451171875,7.177734375,-0.146484375,-72.509765625
30.80899429321289,1680681540.2153037,-0.0537109375,-0.051025390625,-1.227294921875,0.0,-1.2054443359375,0.12969970703125,10.693359375,-3.662109375,-48.779296875
30.85899519920349,1680681540.2653046,-0.164306640625,-0.01513671875,-0.63818359375,-0.05340576171875,-4.14276123046875,-6.78253173828125,9.9609375,-14.35546875,-60.05859375
30.90899658203125,1680681540.315306,0.102783203125,0.296875,-1.19384765625,8.3160400390625,16.42608642578125,-11.17706298828125,8.935546875,0.146484375,-68.408203125
30.95899748802185,1680681540.3653069,-0.073486328125,0.234619140625,-0.973876953125,11.39068603515625,-1.83868408203125,-8.9874267578125,9.9609375,-7.03125,-61.23046875
31.008997678756714,1680681540.415307,-0.144287109375,-0.001953125,-0.455078125,-2.66265869140625,23.529052734375,-0.1068115234375,7.91015625,-12.890625,-76.7578125
31.058997869491577,1680681540.4653072,-0.047119140625,0.19580078125,-0.877197265625,-7.75909423828125,-0.2288818359375,-1.79290771484375,9.9609375,7.32421875,-66.2109375
31.108998775482178,1680681540.5153081,0.10302734375,0.09423828125,-1.493408203125,3.47137451171875,2.3040771484375,1.953125,9.9609375,-7.6171875,-50.390625
31.159000396728516,1680681540.5653098,-0.18896484375,0.19384765625,-0.97021484375,-2.86865234375,-1.73187255859375,-1.2969970703125,10.107421875,-7.470703125,-62.255859375
31.209001064300537,1680681540.6153104,-0.193603515625,-0.006591796875,-0.639404296875,-3.3721923828125,16.815185546875,-9.765625,10.693359375,-8.935546875,-61.669921875
31.259002685546875,1680681540.665312,0.096923828125,0.015869140625,-1.37548828125,0.640869140625,-9.54437255859375,-6.69097900390625,10.107421875,3.076171875,-65.771484375
31.309003114700317,1680681540.7153125,0.0625,0.0322265625,-0.704345703125,3.50189208984375,1.68609619140625,-8.23974609375,9.66796875,-10.83984375,-49.21875
31.35900354385376,1680681540.765313,0.302001953125,0.11328125,-0.8681640625,-1.3885498046875,-1.28173828125,-4.0130615234375,7.470703125,-11.572265625,-76.904296875
31.409003496170044,1680681540.8153129,-0.16259765625,0.011474609375,-0.985595703125,2.6092529296875,6.7291259765625,-5.18035888671875,9.814453125,-5.126953125,-60.791015625
31.459003925323486,1680681540.8653133,-0.071044921875,-0.114013671875,-1.0078125,-4.15802001953125,0.69427490234375,1.77764892578125,10.546875,-8.203125,-62.109375
31.50900411605835,1680681540.9153135,0.09716796875,0.215576171875,-1.18701171875,4.0435791015625,3.30352783203125,-3.448486328125,7.03125,-9.66796875,-86.1328125
31.559004068374634,1680681540.9653134,0.010986328125,-0.05615234375,-0.738525390625,-10.87188720703125,-0.98419189453125,-7.05718994140625,8.935546875,6.005859375,-61.376953125
31.609004735946655,1680681541.015314,-0.193359375,-0.080322265625,-0.96240234375,-7.83538818359375,24.0936279296875,-7.14874267578125,10.400390625,-10.107421875,-53.466796875
31.659005403518677,1680681541.0653148,0.140625,0.330078125,-0.710205078125,-0.06866455078125,4.50897216796875,-11.95526123046875,9.9609375,-7.6171875,-62.109375
31.709006309509277,1680681541.1153157,-0.301025390625,0.0380859375,-0.90673828125,5.08880615234375,15.70892333984375,-13.2904052734375,9.228515625,-10.693359375,-64.306640625
31.75900650024414,1680681541.1653159,-0.076171875,-0.073974609375,-0.603515625,-8.3465576171875,-0.09918212890625,-13.57269287109375,8.49609375,1.171875,-59.765625
31.80900764465332,1680681541.215317,0.01171875,-0.124267578125,-0.873291015625,-2.899169921875,19.6533203125,-14.7705078125,10.25390625,-13.18359375,-53.3203125
31.8590087890625,1680681541.2653182,0.150634765625,0.15234375,-1.668212890625,-11.74163818359375,-10.4827880859375,-15.52581787109375,6.73828125,-7.32421875,-79.39453125
31.9090096950531,1680681541.315319,-0.444580078125,-0.178955078125,-1.1484375,7.7972412109375,15.3961181640625,-9.185791015625,9.66796875,-6.73828125,-61.81640625
31.959009647369385,1680681541.365319,0.3642578125,0.09130859375,-0.888427734375,6.0882568359375,-8.78143310546875,-8.2855224609375,9.814453125,-11.572265625,-62.841796875
32.009011030197144,1680681541.4153204,0.168212890625,-0.1220703125,-1.156494140625,0.6561279296875,8.11004638671875,-6.52313232421875,7.03125,-1.46484375,-89.6484375
32.05901265144348,1680681541.465322,0.008056640625,-0.12109375,-0.635009765625,-14.617919921875,-6.26373291015625,-5.4931640625,9.814453125,2.783203125,-56.103515625
32.10901355743408,1680681541.515323,0.031982421875,0.04052734375,-0.87451171875,2.47955322265625,6.85882568359375,-12.21466064453125,9.9609375,-11.42578125,-56.54296875
32.15901494026184,1680681541.5653243,0.093017578125,0.048583984375,-1.078369140625,-5.47027587890625,-0.14495849609375,-15.533447265625,9.66796875,-7.6171875,-62.98828125
32.20901560783386,1680681541.615325,0.05419921875,-0.166015625,-1.06201171875,0.5950927734375,-0.14495849609375,-15.05279541015625,9.521484375,-11.865234375,-63.720703125
32.25901675224304,1680681541.665326,0.131591796875,0.025634765625,-0.781982421875,-1.89208984375,0.2593994140625,-15.55633544921875,9.9609375,1.7578125,-62.98828125
32.309016704559326,1680681541.715326,-0.093505859375,0.172119140625,-0.923095703125,13.5345458984375,16.05224609375,-15.72418212890625,11.42578125,-13.4765625,-52.734375
32.35901665687561,1680681541.765326,0.079345703125,0.260009765625,-1.103271484375,4.82177734375,7.965087890625,-10.6658935546875,8.349609375,-10.693359375,-80.126953125
32.40901803970337,1680681541.8153274,0.04150390625,-0.221435546875,-1.111328125,2.11334228515625,-1.068115234375,-5.2947998046875,10.693359375,-8.642578125,-61.083984375
32.45901870727539,1680681541.865328,0.14697265625,0.204833984375,-0.76708984375,-2.166748046875,14.129638671875,-4.1961669921875,9.521484375,-14.208984375,-61.962890625
32.50901985168457,1680681541.9153292,-0.33984375,-0.06982421875,-0.917724609375,-1.6632080078125,21.8505859375,-5.30242919921875,7.91015625,-3.515625,-88.4765625
32.55902123451233,1680681541.9653306,-0.14404296875,0.10595703125,-0.994873046875,-2.15911865234375,-1.3885498046875,-3.91387939453125,11.279296875,-0.732421875,-54.052734375
32.60902237892151,1680681542.0153317,-0.081787109375,-0.2177734375,-0.623779296875,-5.88226318359375,-8.392333984375,-2.38800048828125,11.279296875,-14.208984375,-56.982421875
32.65902256965637,1680681542.065332,0.316650390625,0.2978515625,-0.717041015625,5.80596923828125,-5.30242919921875,-2.4871826171875,9.228515625,-9.228515625,-61.669921875
32.709023237228394,1680681542.1153326,0.43017578125,0.314697265625,-1.588623046875,5.53131103515625,-16.79229736328125,-8.3160400390625,9.375,-12.59765625,-65.33203125
32.75902342796326,1680681542.1653328,0.043701171875,-0.029296875,-0.95849609375,-2.67791748046875,0.9307861328125,-5.0201416015625,9.228515625,0.146484375,-59.912109375
32.8090238571167,1680681542.2153332,-0.18408203125,0.17138671875,-0.82080078125,5.645751953125,8.36944580078125,-15.9454345703125,10.986328125,-13.916015625,-49.951171875
32.8590247631073,1680681542.2653341,0.123046875,0.22802734375,-1.33837890625,-1.434326171875,3.1585693359375,-12.542724609375,9.521484375,-19.189453125,-70.458984375
32.90902614593506,1680681542.3153355,0.13232421875,0.080322265625,-1.024169921875,6.49261474609375,-0.86212158203125,-11.7645263671875,10.83984375,-3.80859375,-62.98828125
32.95902681350708,1680681542.3653362,0.19677734375,0.121826171875,-0.8427734375,7.05718994140625,18.95904541015625,-12.5274658203125,10.546875,-10.83984375,-62.6953125
33.00902700424194,1680681542.4153364,0.07568359375,0.154296875,-0.968994140625,4.11224365234375,-17.0440673828125,-16.1285400390625,10.25390625,-15.8203125,-83.203125
33.059027433395386,1680681542.4653368,-0.523193359375,-0.04296875,-1.0244140625,16.99066162109375,18.85986328125,-3.0364990234375,11.865234375,3.076171875,-64.306640625
33.109029054641724,1680681542.5153384,-0.03955078125,1.41015625,-1.78759765625,7.354736328125,-3.84521484375,-3.83758544921875,12.01171875,-11.1328125,-51.26953125
33.159029960632324,1680681542.5653393,0.343994140625,0.125244140625,-1.206787109375,21.20208740234375,-2.72369384765625,-3.28826904296875,10.546875,-12.01171875,-62.40234375
33.20903158187866,1680681542.615341,-0.410400390625,-0.2216796875,-0.44580078125,-2.0599365234375,-1.45721435546875,0.26702880859375,12.744140625,-13.623046875,-60.791015625
33.259032249450684,1680681542.6653416,-0.056640625,-0.212646484375,-0.5625,-12.80975341796875,-5.8746337890625,0.20599365234375,10.83984375,-2.9296875,-70.01953125
33.30903363227844,1680681542.715343,-0.129150390625,0.430908203125,-1.183837890625,8.3465576171875,17.69256591796875,-6.24847412109375,12.01171875,-11.42578125,-50.390625
33.35903525352478,1680681542.7653446,0.054443359375,0.127685546875,-0.76318359375,-3.05938720703125,-6.6070556640625,-1.9989013671875,9.814453125,-19.775390625,-65.478515625
33.4090371131897,1680681542.8153465,-0.3349609375,0.142333984375,-0.76416015625,0.06866455078125,3.88336181640625,-7.5836181640625,9.9609375,-4.1015625,-65.91796875
33.45903754234314,1680681542.865347,0.100830078125,0.195068359375,-1.11669921875,-7.2479248046875,-7.42340087890625,-0.11444091796875,10.25390625,-11.71875,-61.5234375
33.509037494659424,1680681542.9153469,0.143798828125,-0.0322265625,-0.614990234375,-17.6544189453125,18.3563232421875,0.54931640625,10.107421875,-19.775390625,-68.115234375
33.559038162231445,1680681542.9653475,-0.0693359375,-0.069580078125,-0.798828125,-11.627197265625,-3.88336181640625,-2.14385986328125,9.228515625,3.076171875,-78.076171875
33.60903811454773,1680681543.0153475,0.063232421875,0.23681640625,-1.631591796875,-11.57379150390625,-10.4827880859375,-7.5225830078125,12.01171875,-7.32421875,-50.9765625
33.65903830528259,1680681543.0653477,-0.4658203125,-0.105712890625,0.3154296875,-20.74432373046875,24.993896484375,-8.8348388671875,10.107421875,-14.794921875,-60.205078125
33.70903825759888,1680681543.1153476,0.21826171875,0.076904296875,2.0,-7.4462890625,-24.3682861328125,-14.22119140625,8.935546875,-10.693359375,-60.791015625
33.75903820991516,1680681543.1653476,0.22900390625,0.337158203125,-1.248291015625,6.27899169921875,-2.7618408203125,-12.50457763671875,8.49609375,-8.7890625,-74.4140625
33.8090386390686,1680681543.215348,0.07275390625,-0.027099609375,-0.910888671875,-2.1820068359375,12.79449462890625,-18.6004638671875,10.83984375,-7.32421875,-49.8046875
33.85903978347778,1680681543.2653491,-0.081298828125,0.1796875,-1.0146484375,14.79339599609375,-4.5928955078125,-17.5323486328125,9.66796875,-19.3359375,-59.47265625
33.909040451049805,1680681543.3153498,0.45849609375,-0.0361328125,-0.83544921875,-12.09259033203125,21.270751953125,-18.12744140625,8.349609375,-3.662109375,-69.287109375
33.95904040336609,1680681543.3653498,0.0224609375,0.08056640625,-1.1240234375,-6.93511962890625,13.092041015625,-13.61846923828125,9.521484375,-11.279296875,-62.841796875
34.00904035568237,1680681543.4153497,0.0341796875,0.13818359375,-0.912109375,0.08392333984375,30.69305419921875,-12.6953125,7.470703125,-16.845703125,-82.177734375
34.059041023254395,1680681543.4653504,-0.008544921875,0.197998046875,-1.35595703125,-4.76837158203125,-1.65557861328125,-21.12579345703125,10.107421875,-0.732421875,-61.083984375
34.109041929244995,1680681543.5153513,-0.05859375,0.35888671875,-1.683349609375,13.14544677734375,-11.11602783203125,-17.333984375,9.9609375,-14.0625,-52.44140625
34.159042835235596,1680681543.5653522,-0.357177734375,0.308837890625,0.282470703125,-6.55364990234375,37.7960205078125,-24.322509765625,8.7890625,-13.4765625,-62.98828125
34.209043741226196,1680681543.615353,0.859130859375,-0.215087890625,-1.84716796875,-11.60430908203125,-22.56011962890625,-17.6849365234375,10.25390625,-16.11328125,-62.6953125
34.2590446472168,1680681543.665354,0.195556640625,0.375,-1.163818359375,6.6070556640625,14.83154296875,-19.8822021484375,9.228515625,-3.955078125,-62.548828125
34.30904507637024,1680681543.7153544,0.74365234375,0.021484375,2.0,8.36944580078125,11.7645263671875,-13.7481689453125,10.107421875,-20.654296875,-53.466796875
34.35904622077942,1680681543.7653556,-0.36767578125,-0.019287109375,0.758056640625,-18.02825927734375,40.069580078125,-20.538330078125,7.177734375,-11.572265625,-79.833984375
34.40904688835144,1680681543.8153563,-0.5478515625,-0.561767578125,-1.3056640625,-29.815673828125,5.86700439453125,-14.73236083984375,10.25390625,-14.35546875,-62.6953125
34.459046840667725,1680681543.8653562,0.139404296875,1.39306640625,2.0,62.652587890625,-14.85443115234375,-11.68060302734375,9.375,-19.921875,-67.96875
34.50904726982117,1680681543.9153566,0.57861328125,-0.44921875,-0.26513671875,-4.18853759765625,-25.94757080078125,-3.68499755859375,9.228515625,-0.439453125,-76.611328125
34.55904793739319,1680681543.9653573,-0.05126953125,0.294677734375,-0.7333984375,-4.00543212890625,8.44573974609375,-13.8092041015625,10.546875,-13.18359375,-50.390625
34.60904908180237,1680681544.0153584,0.239501953125,-0.090576171875,-1.59912109375,15.19775390625,-9.4757080078125,-10.2996826171875,10.693359375,-17.138671875,-62.255859375
34.65925431251526,1680681544.0655637,-0.164794921875,0.440185546875,-0.19287109375,17.5323486328125,25.24566650390625,-13.4735107421875,9.9609375,-16.9921875,-60.3515625
34.70925521850586,1680681544.1155646,-0.262939453125,-0.199462890625,-0.85009765625,1.47247314453125,0.08392333984375,-9.429931640625,8.7890625,-6.73828125,-65.0390625
34.75925636291504,1680681544.1655657,-0.05615234375,0.412109375,-0.974365234375,25.787353515625,19.195556640625,-9.490966796875,9.9609375,-21.09375,-51.5625
34.80925750732422,1680681544.2155669,0.31689453125,0.184326171875,-1.318359375,-0.38909912109375,-16.7694091796875,-2.86102294921875,8.203125,-17.28515625,-78.80859375
34.8592586517334,1680681544.265568,0.115478515625,0.20068359375,-0.7978515625,3.3416748046875,10.1318359375,-7.16400146484375,11.572265625,-13.916015625,-60.205078125
34.90925931930542,1680681544.3155687,0.13525390625,0.10986328125,-0.8935546875,10.18524169921875,-6.72149658203125,-11.2762451171875,11.572265625,-20.068359375,-62.548828125
34.95926070213318,1680681544.36557,0.17333984375,-0.389892578125,-0.9326171875,-5.69915771484375,-12.4969482421875,-8.880615234375,9.228515625,-4.833984375,-85.107421875
35.00926113128662,1680681544.4155705,0.174072265625,-0.013671875,-1.191650390625,-0.08392333984375,4.73785400390625,-11.932373046875,12.451171875,-10.693359375,-50.830078125
35.05926275253296,1680681544.465572,-0.166748046875,-0.217529296875,-1.267333984375,-0.16021728515625,-6.866455078125,-1.96075439453125,10.83984375,-18.75,-60.05859375
35.1092631816864,1680681544.5155725,-0.0439453125,0.00146484375,-0.70654296875,-10.7269287109375,16.07513427734375,1.53350830078125,11.279296875,-15.966796875,-59.912109375
35.15926480293274,1680681544.5655742,-0.23388671875,-0.059814453125,-0.7021484375,-1.2664794921875,20.08819580078125,-2.58636474609375,10.400390625,-9.228515625,-70.458984375
35.2092661857605,1680681544.6155756,0.136962890625,0.0869140625,-1.416748046875,-10.4217529296875,3.4332275390625,-7.8125,12.158203125,-19.189453125,-50.244140625
35.2592670917511,1680681544.6655765,0.216064453125,0.67919921875,-0.3330078125,14.129638671875,17.67730712890625,-8.90350341796875,9.9609375,-21.09375,-77.05078125
35.30926752090454,1680681544.715577,0.03173828125,-0.004150390625,-1.279541015625,1.03759765625,-7.11822509765625,-8.1329345703125,11.1328125,-16.69921875,-60.3515625
35.3592689037323,1680681544.7655783,-0.22998046875,-0.044921875,-0.493408203125,-11.0321044921875,18.9666748046875,-5.55419921875,11.279296875,-22.705078125,-63.134765625
35.40926957130432,1680681544.815579,-0.062255859375,-0.04931640625,-1.04931640625,-3.23486328125,1.36566162109375,-3.9825439453125,9.814453125,-4.248046875,-80.419921875
35.459269523620605,1680681544.865579,0.136474609375,0.441650390625,-1.088134765625,12.0697021484375,-6.81304931640625,-3.10516357421875,11.1328125,-13.4765625,-48.6328125
35.509270429611206,1680681544.9155798,-0.20556640625,-0.218994140625,-0.586669921875,1.068115234375,8.75091552734375,-3.6163330078125,10.107421875,-18.603515625,-60.205078125
35.55927109718323,1680681544.9655805,0.3984375,-0.15087890625,-1.322021484375,-3.10516357421875,-2.89154052734375,-0.518798828125,11.865234375,-16.259765625,-58.740234375
35.60927200317383,1680681545.0155814,0.233154296875,-0.106201171875,-0.631591796875,-1.28173828125,-5.34820556640625,2.57110595703125,9.9609375,-11.71875,-70.8984375
35.65927290916443,1680681545.0655823,-0.03515625,0.035888671875,-1.22998046875,-9.82666015625,-4.43267822265625,-3.11279296875,10.83984375,-18.45703125,-48.6328125
35.70927286148071,1680681545.1155822,-0.120361328125,-0.117919921875,-0.37255859375,-7.7056884765625,25.13885498046875,-3.2501220703125,7.91015625,-21.6796875,-76.171875
35.75927400588989,1680681545.1655834,0.1474609375,0.24609375,-1.296875,4.18853759765625,-22.59063720703125,-2.69317626953125,10.986328125,-16.259765625,-60.498046875
