time_offset,timestamp,ax,ay,az,wx,wy,wz,mx,my,mz
0.002293825149536133,1680680774.138364,0.09912109375,0.171142578125,-1.054931640625,-4.4708251953125,0.46539306640625,1.25885009765625,9.814453125,-2.783203125,-54.345703125
0.05229496955871582,1680680774.1883652,0.0703125,0.2080078125,-0.90869140625,-2.00653076171875,-0.66375732421875,1.5716552734375,10.25390625,-3.22265625,-55.078125
0.1022953987121582,1680680774.2383657,0.06103515625,0.18359375,-0.97509765625,-0.213623046875,3.6163330078125,0.20599365234375,9.9609375,-2.05078125,-55.37109375
0.1522970199584961,1680680774.2883673,0.051513671875,0.179931640625,-1.0341796875,-0.63323974609375,2.3956298828125,1.3885498046875,8.349609375,-3.662109375,-54.345703125
0.20229792594909668,1680680774.3383682,0.072265625,0.2138671875,-0.97900390625,-2.6092529296875,-1.8157958984375,0.25177001953125,9.08203125,-2.9296875,-54.78515625
0.25229811668395996,1680680774.3883684,0.048583984375,0.18603515625,-0.9892578125,-1.33514404296875,1.74713134765625,0.42724609375,9.375,-3.22265625,-55.37109375
0.30229878425598145,1680680774.438369,0.04150390625,0.22412109375,-1.01318359375,-3.77655029296875,1.89208984375,1.21307373046875,9.375,-3.22265625,-54.78515625
0.3522989749908447,1680680774.4883692,0.0751953125,0.208251953125,-0.9892578125,-0.0457763671875,0.7171630859375,0.732421875,10.107421875,-3.955078125,-54.931640625
0.4023005962371826,1680680774.5383708,0.060546875,0.215087890625,-0.988525390625,-0.6103515625,1.73187255859375,1.0986328125,9.9609375,-3.515625,-54.19921875
0.4523015022277832,1680680774.5883718,0.055908203125,0.2177734375,-0.998291015625,-0.02288818359375,1.800537109375,0.40435791015625,8.349609375,-4.248046875,-54.638671875
0.5023016929626465,1680680774.638372,0.0615234375,0.203857421875,-0.988525390625,-0.22125244140625,0.7781982421875,0.732421875,7.470703125,-3.662109375,-54.345703125
0.5523021221160889,1680680774.6883724,0.045654296875,0.207275390625,-0.99658203125,0.42724609375,1.56402587890625,0.9918212890625,8.49609375,-2.9296875,-54.19921875
0.6023037433624268,1680680774.738374,0.054443359375,0.18896484375,-0.9921875,0.6103515625,1.495361328125,1.02996826171875,9.66796875,-3.515625,-55.078125
0.6523053646087646,1680680774.7883756,0.050048828125,0.209228515625,-0.991455078125,0.732421875,1.4801025390625,1.22833251953125,8.7890625,-3.22265625,-55.37109375
0.7023069858551025,1680680774.8383772,0.0498046875,0.24755859375,-0.99169921875,1.82342529296875,1.5716552734375,0.55694580078125,9.521484375,-2.490234375,-54.345703125
0.7523078918457031,1680680774.8883781,0.04638671875,0.190185546875,-0.982177734375,2.5787353515625,2.685546875,0.7781982421875,10.546875,-3.22265625,-54.4921875
0.8023090362548828,1680680774.9383793,0.044677734375,0.23828125,-0.994873046875,2.471923828125,1.15203857421875,1.27410888671875,9.66796875,-3.515625,-54.4921875
0.8523092269897461,1680680774.9883795,0.04833984375,0.2236328125,-0.99951171875,4.52423095703125,1.68609619140625,0.274658203125,10.107421875,-3.076171875,-54.345703125
0.9023103713989258,1680680775.0383806,0.04541015625,0.201171875,-0.994873046875,5.615234375,2.23541259765625,1.01470947265625,9.66796875,-4.1015625,-55.078125
0.95231032371521,1680680775.0883806,0.05126953125,0.210693359375,-0.98828125,6.7291259765625,1.8463134765625,0.67901611328125,10.986328125,-3.662109375,-54.638671875
1.0038478374481201,1680680775.139918,0.05712890625,0.21435546875,-0.99560546875,8.6822509765625,1.6632080078125,1.068115234375,10.546875,-3.515625,-54.4921875
1.0538482666015625,1680680775.1899185,0.05419921875,0.17919921875,-0.993896484375,9.2620849609375,2.044677734375,1.0223388671875,10.400390625,-3.076171875,-54.345703125
1.1038484573364258,1680680775.2399187,0.056396484375,0.16357421875,-1.000244140625,9.58251953125,1.79290771484375,1.18255615234375,9.814453125,-3.076171875,-55.810546875
1.1538491249084473,1680680775.2899194,0.0654296875,0.121826171875,-1.00390625,8.7738037109375,1.59454345703125,0.74005126953125,11.42578125,-3.515625,-54.19921875
1.2038500308990479,1680680775.3399203,0.065673828125,0.0859375,-1.005615234375,7.36236572265625,1.74713134765625,1.7547607421875,11.279296875,-3.955078125,-54.638671875
1.2538506984710693,1680680775.389921,0.0712890625,0.0625,-0.99755859375,5.1727294921875,1.64031982421875,1.3580322265625,11.1328125,-4.1015625,-53.90625
1.303851842880249,1680680775.439922,0.056884765625,0.07568359375,-1.00439453125,2.5482177734375,1.1749267578125,2.38800048828125,10.693359375,-3.662109375,-53.173828125
1.3538527488708496,1680680775.489923,0.033203125,0.142333984375,-1.01318359375,1.30462646484375,1.57928466796875,2.06756591796875,12.890625,-3.515625,-54.78515625
1.4038536548614502,1680680775.539924,0.03466796875,0.1943359375,-0.99853515625,3.33404541015625,1.70135498046875,1.48773193359375,11.572265625,-2.783203125,-53.466796875
1.4538547992706299,1680680775.589925,0.036865234375,0.20703125,-1.01318359375,6.439208984375,1.59454345703125,0.89263916015625,11.279296875,-3.076171875,-53.759765625
1.5038549900054932,1680680775.6399252,0.045654296875,0.231689453125,-1.012451171875,10.35308837890625,2.11334228515625,0.17547607421875,13.4765625,-3.22265625,-54.19921875
1.5538554191589355,1680680775.6899257,0.060546875,0.1748046875,-1.004638671875,13.092041015625,2.32696533203125,0.16021728515625,13.4765625,-2.9296875,-54.4921875
1.6038565635681152,1680680775.7399268,0.072509765625,0.147705078125,-1.000244140625,15.045166015625,2.34222412109375,0.2288818359375,13.037109375,-3.662109375,-54.345703125
1.653857707977295,1680680775.789928,0.0791015625,0.042724609375,-0.996826171875,15.3656005859375,2.5787353515625,0.030517578125,13.916015625,-4.248046875,-53.759765625
1.7038581371307373,1680680775.8399284,0.08544921875,-0.0419921875,-1.00537109375,12.451171875,2.00653076171875,0.22125244140625,14.208984375,-3.955078125,-54.345703125
1.753859043121338,1680680775.8899293,0.1064453125,-0.227783203125,-1.0068359375,5.69915771484375,1.6326904296875,1.04522705078125,13.76953125,-3.515625,-52.734375
1.8038604259490967,1680680775.9399307,0.10595703125,-0.05712890625,-1.01953125,-0.6561279296875,0.63323974609375,2.86102294921875,13.916015625,-3.076171875,-53.173828125
1.8538618087768555,1680680775.989932,0.079833984375,-0.099365234375,-1.00439453125,-5.89752197265625,1.40380859375,0.70953369140625,14.501953125,-3.369140625,-53.173828125
1.9038631916046143,1680680776.0399334,0.0703125,-0.07568359375,-1.01318359375,-11.48223876953125,0.640869140625,3.24249267578125,14.6484375,-3.22265625,-53.02734375
1.953864574432373,1680680776.0899348,0.04248046875,0.1337890625,-0.90478515625,-15.716552734375,3.39508056640625,1.7547607421875,14.208984375,-3.369140625,-52.001953125
2.003865957260132,1680680776.1399362,0.0029296875,0.030517578125,-0.98046875,-18.04351806640625,2.197265625,2.349853515625,11.572265625,-3.662109375,-53.173828125
2.053866386413574,1680680776.1899366,0.0478515625,0.262451171875,-1.021728515625,-12.06207275390625,1.678466796875,3.80706787109375,14.208984375,-4.541015625,-54.052734375
2.103867530822754,1680680776.2399378,0.0078125,0.186767578125,-1.0263671875,-4.84466552734375,1.678466796875,1.3427734375,13.4765625,-3.80859375,-52.1484375
2.1538681983947754,1680680776.2899384,-0.00146484375,0.397705078125,-0.989013671875,4.82940673828125,2.7008056640625,-0.3509521484375,13.330078125,-4.833984375,-53.759765625
2.2038683891296387,1680680776.3399386,-0.003173828125,0.174560546875,-1.025146484375,12.5274658203125,2.17437744140625,-0.64849853515625,14.35546875,-3.22265625,-52.734375
2.2538700103759766,1680680776.3899403,0.061279296875,0.03271484375,-1.039794921875,14.2364501953125,2.288818359375,-2.51007080078125,12.451171875,-3.955078125,-52.880859375
2.303870916366577,1680680776.4399412,0.12646484375,0.064453125,-1.029052734375,11.9171142578125,3.05938720703125,-2.8076171875,13.76953125,-4.39453125,-53.3203125
2.353872537612915,1680680776.4899428,0.14306640625,-0.092041015625,-0.99267578125,6.32476806640625,2.79998779296875,0.86212158203125,14.501953125,-4.248046875,-53.173828125
2.4038736820220947,1680680776.539944,0.158935546875,0.114990234375,-1.016845703125,5.68389892578125,0.3509521484375,-0.29754638671875,13.916015625,-4.248046875,-52.587890625
2.453874111175537,1680680776.5899444,0.128662109375,-0.0537109375,-1.01513671875,3.6773681640625,1.2054443359375,0.84686279296875,14.794921875,-3.369140625,-51.708984375
2.5038750171661377,1680680776.6399453,0.114990234375,0.13134765625,-1.053955078125,3.997802734375,0.91552734375,1.9989013671875,14.94140625,-5.56640625,-52.1484375
2.5538761615753174,1680680776.6899464,0.076416015625,0.0302734375,-1.007080078125,6.56890869140625,1.47247314453125,0.93841552734375,15.087890625,-5.126953125,-52.294921875
2.603877544403076,1680680776.7399478,0.042724609375,0.070068359375,-1.013427734375,5.8746337890625,1.56402587890625,2.12860107421875,15.380859375,-6.591796875,-50.244140625
2.6538782119750977,1680680776.7899485,0.054931640625,0.01220703125,-1.025634765625,6.7596435546875,1.35040283203125,0.8544921875,15.8203125,-5.859375,-49.21875
2.703878402709961,1680680776.8399487,-0.24462890625,0.077392578125,-1.122314453125,-1.4190673828125,5.462646484375,4.44793701171875,14.94140625,-5.56640625,-49.8046875
2.753878355026245,1680680776.8899486,-0.09130859375,-0.133544921875,-0.49169921875,14.1448974609375,15.3961181640625,-3.73077392578125,15.380859375,-6.005859375,-49.951171875
2.8038792610168457,1680680776.9399495,0.003662109375,-0.23876953125,-0.9453125,-1.53350830078125,-0.54931640625,1.74713134765625,15.8203125,-6.73828125,-49.51171875
2.8538806438446045,1680680776.989951,0.19580078125,0.10107421875,-1.16357421875,-4.180908203125,-5.06591796875,1.2359619140625,15.966796875,-6.298828125,-49.658203125
2.9038820266723633,1680680777.0399523,0.172119140625,-0.194091796875,-1.67919921875,-9.05609130859375,-3.07464599609375,3.60870361328125,16.845703125,-7.177734375,-50.830078125
2.953883647918701,1680680777.089954,0.135009765625,0.142578125,-1.26953125,0.06103515625,-3.6163330078125,3.94439697265625,15.380859375,-8.349609375,-50.244140625
3.0038845539093018,1680680777.1399548,0.15966796875,0.2080078125,-0.9736328125,10.71929931640625,0.152587890625,1.6632080078125,16.845703125,-7.763671875,-48.779296875
3.0538856983184814,1680680777.189956,-0.23291015625,-0.28173828125,-0.80517578125,-7.24029541015625,13.4124755859375,3.37982177734375,16.40625,-7.32421875,-48.33984375
3.1038858890533447,1680680777.2399561,0.398681640625,0.065673828125,-1.630615234375,18.04351806640625,-15.44189453125,0.74005126953125,14.6484375,-7.6171875,-50.390625
3.153886556625366,1680680777.2899568,0.22705078125,0.037841796875,-1.507080078125,-7.232666015625,-2.3040771484375,2.5177001953125,15.380859375,-5.712890625,-49.658203125
3.203887939453125,1680680777.3399582,0.1357421875,-0.04638671875,-0.953369140625,-16.27349853515625,4.37164306640625,-2.01416015625,15.52734375,-7.91015625,-49.8046875
3.2538883686065674,1680680777.3899586,0.18408203125,0.00830078125,-1.064453125,-19.7906494140625,-3.04412841796875,3.59344482421875,15.234375,-7.91015625,-49.8046875
3.303889513015747,1680680777.4399598,0.157470703125,0.32421875,-1.154296875,-17.7459716796875,-0.31280517578125,-0.32806396484375,13.76953125,-7.91015625,-49.21875
3.3538899421691895,1680680777.4899602,0.117431640625,0.17333984375,-0.958984375,-15.84625244140625,-0.34332275390625,0.29754638671875,13.916015625,-9.521484375,-49.658203125
3.4038901329040527,1680680777.5399604,0.12353515625,0.17626953125,-1.011474609375,-10.711669921875,0.46539306640625,1.79290771484375,13.623046875,-10.693359375,-48.193359375
3.4538910388946533,1680680777.5899613,0.090576171875,0.24609375,-1.029052734375,-6.93511962890625,0.244140625,-1.12152099609375,13.76953125,-12.3046875,-49.21875
3.503892183303833,1680680777.6399624,0.11669921875,0.156005859375,-0.972900390625,-3.1280517578125,0.49591064453125,0.9613037109375,12.59765625,-13.18359375,-48.92578125
3.5538930892944336,1680680777.6899633,0.03564453125,0.24853515625,-1.01708984375,-0.45013427734375,2.7313232421875,-0.4730224609375,13.330078125,-15.087890625,-50.830078125
3.603893756866455,1680680777.739964,0.0458984375,0.080810546875,-1.003662109375,0.26702880859375,2.03704833984375,-1.64031982421875,12.451171875,-15.380859375,-52.294921875
3.6538949012756348,1680680777.7899652,0.05859375,0.095458984375,-0.98193359375,0.11444091796875,-0.823974609375,1.9378662109375,13.18359375,-16.11328125,-54.78515625
3.7038962841033936,1680680777.8399665,0.055908203125,0.1513671875,-1.060546875,1.678466796875,1.8768310546875,-3.45611572265625,13.18359375,-15.8203125,-54.78515625
3.7538976669311523,1680680777.889968,-0.010498046875,-0.000732421875,-1.1220703125,0.1373291015625,1.251220703125,-2.1820068359375,12.451171875,-16.259765625,-56.982421875
3.803899049758911,1680680777.9399693,-0.044921875,0.131591796875,-1.02880859375,-0.6256103515625,0.95367431640625,-0.90789794921875,12.3046875,-14.94140625,-57.12890625
3.8538994789123535,1680680777.9899697,-0.0546875,0.141357421875,-0.955322265625,-1.71661376953125,2.18963623046875,-4.2572021484375,12.744140625,-16.552734375,-58.154296875
3.9038994312286377,1680680778.0399697,-0.0361328125,0.085205078125,-1.03662109375,0.9918212890625,2.51007080078125,-0.7476806640625,13.037109375,-15.673828125,-59.326171875
3.9539010524749756,1680680778.0899713,0.0029296875,0.176513671875,-0.988037109375,0.946044921875,0.885009765625,-1.8768310546875,12.59765625,-15.52734375,-58.59375
4.003901481628418,1680680778.1399717,0.04833984375,0.023681640625,-1.005615234375,0.34332275390625,2.8533935546875,-1.71661376953125,12.890625,-15.52734375,-60.05859375
4.0539021492004395,1680680778.1899724,0.084716796875,-0.016845703125,-0.997314453125,-2.54058837890625,1.91497802734375,0.95367431640625,10.83984375,-15.234375,-58.88671875
4.103902578353882,1680680778.2399728,0.094482421875,0.025390625,-0.98681640625,-5.04302978515625,1.54876708984375,0.49591064453125,12.59765625,-16.11328125,-60.9375
4.153902530670166,1680680778.2899728,0.089599609375,-0.095703125,-0.991455078125,-10.36834716796875,1.312255859375,1.2054443359375,12.451171875,-14.501953125,-61.083984375
4.2039031982421875,1680680778.3399734,0.072021484375,-0.076416015625,-1.046630859375,-16.77703857421875,-1.02996826171875,1.79290771484375,11.572265625,-13.623046875,-60.205078125
4.253904581069946,1680680778.3899748,0.011474609375,0.212646484375,-1.080078125,-16.8304443359375,-0.55694580078125,1.8463134765625,10.83984375,-13.18359375,-62.109375
4.303905725479126,1680680778.439976,-0.024658203125,0.204833984375,-0.98828125,-17.669677734375,0.7476806640625,1.3580322265625,10.83984375,-13.18359375,-60.9375
4.353907108306885,1680680778.4899774,-0.083251953125,0.30712890625,-0.968994140625,-17.75360107421875,0.701904296875,2.0599365234375,9.08203125,-12.59765625,-60.64453125
4.403907060623169,1680680778.5399773,-0.001953125,0.133544921875,-1.092041015625,-16.082763671875,-1.40380859375,0.14495849609375,9.814453125,-12.744140625,-63.134765625
4.453908443450928,1680680778.5899787,-0.00634765625,0.230712890625,-0.950927734375,-15.0299072265625,-1.85394287109375,0.6866455078125,8.7890625,-12.3046875,-61.5234375
4.503909111022949,1680680778.6399794,-0.051025390625,0.448486328125,-1.069580078125,-6.2103271484375,9.796142578125,-3.74603271484375,8.203125,-12.890625,-61.23046875
4.553910732269287,1680680778.689981,0.087158203125,0.073974609375,-0.95947265625,-16.30401611328125,-6.62994384765625,4.60052490234375,7.763671875,-11.572265625,-62.548828125
4.6039111614227295,1680680778.7399814,-0.0751953125,0.110595703125,-1.0078125,-11.00921630859375,7.9803466796875,3.10516357421875,8.7890625,-12.59765625,-61.81640625
4.653911113739014,1680680778.7899814,-0.070068359375,0.13916015625,-0.829345703125,-22.4456787109375,5.47027587890625,1.33514404296875,7.03125,-12.3046875,-61.81640625
4.7039124965667725,1680680778.8399827,0.12841796875,0.109375,-1.033447265625,-28.93829345703125,-7.6751708984375,3.16619873046875,6.15234375,-11.42578125,-60.9375
4.753912925720215,1680680778.8899832,0.015625,0.20751953125,-0.986328125,-24.017333984375,2.49481201171875,7.781982421875,5.419921875,-11.279296875,-62.841796875
4.803913831710815,1680680778.939984,0.021240234375,0.147216796875,-0.88134765625,-34.24835205078125,-1.28936767578125,7.20977783203125,4.833984375,-11.865234375,-63.134765625
4.853915214538574,1680680778.9899855,0.03662109375,0.3564453125,-0.8984375,-26.22222900390625,3.9215087890625,5.79833984375,4.39453125,-11.71875,-62.98828125
4.903915166854858,1680680779.0399854,0.10400390625,0.510498046875,-0.97021484375,-22.7813720703125,-5.69915771484375,5.79071044921875,4.6875,-11.71875,-62.98828125
4.953915357589722,1680680779.0899856,0.021240234375,0.64599609375,-0.898681640625,-9.51385498046875,0.95367431640625,-0.0457763671875,3.955078125,-12.158203125,-62.548828125
5.003916263580322,1680680779.1399865,0.005615234375,0.32421875,-0.89990234375,-7.781982421875,2.96783447265625,0.213623046875,3.076171875,-11.865234375,-63.427734375
5.053916931152344,1680680779.1899872,0.01025390625,0.38037109375,-0.98828125,-7.45391845703125,-0.84686279296875,-2.87628173828125,4.541015625,-12.158203125,-62.548828125
5.103917598724365,1680680779.2399879,0.03857421875,0.36279296875,-1.015625,-2.716064453125,0.78582763671875,-5.06591796875,3.22265625,-11.1328125,-62.98828125
5.153919458389282,1680680779.2899897,0.03125,0.348876953125,-0.966552734375,-4.1656494140625,1.51824951171875,-1.50299072265625,2.490234375,-11.865234375,-63.720703125
5.2039196491241455,1680680779.33999,0.026611328125,0.4697265625,-0.907958984375,-4.82940673828125,1.77001953125,-0.98419189453125,3.80859375,-11.71875,-61.81640625
5.25391960144043,1680680779.3899899,0.012451171875,0.322265625,-0.946533203125,-1.861572265625,1.617431640625,0.02288818359375,2.9296875,-11.42578125,-62.98828125
5.3039209842681885,1680680779.4399912,-0.013427734375,0.50927734375,-0.962890625,1.5716552734375,1.28936767578125,3.2501220703125,2.05078125,-12.890625,-62.98828125
5.353922367095947,1680680779.4899926,0.0009765625,0.395263671875,-0.95947265625,2.76947021484375,1.129150390625,2.70843505859375,2.34375,-11.71875,-62.40234375
5.40392279624939,1680680779.539993,0.048828125,0.372314453125,-0.927490234375,2.12860107421875,1.85394287109375,3.8909912109375,2.63671875,-12.3046875,-61.81640625
5.453924179077148,1680680779.5899944,0.275390625,0.568603515625,-0.889404296875,6.3018798828125,1.39617919921875,0.98419189453125,3.076171875,-12.158203125,-63.134765625
5.503924131393433,1680680779.6399944,-0.199951171875,0.66357421875,-0.959228515625,14.495849609375,2.9296875,-9.6435546875,4.39453125,-12.01171875,-62.109375
5.553924798965454,1680680779.689995,-0.134765625,0.439453125,-0.949951171875,25.64239501953125,2.90679931640625,-5.01251220703125,3.955078125,-11.572265625,-62.255859375
5.603925466537476,1680680779.7399957,0.11962890625,0.148193359375,-0.92041015625,30.3802490234375,4.41741943359375,4.7760009765625,3.80859375,-11.42578125,-61.81640625
5.65392541885376,1680680779.7899957,0.109130859375,0.19775390625,-0.96826171875,23.97918701171875,3.3416748046875,1.39617919921875,5.56640625,-12.3046875,-63.28125
5.703925848007202,1680680779.839996,-0.09423828125,0.184326171875,-0.912353515625,19.83642578125,2.8076171875,5.21087646484375,6.591796875,-11.572265625,-61.962890625
5.753927230834961,1680680779.8899975,-0.0556640625,0.052490234375,-0.8798828125,12.33673095703125,3.92913818359375,13.275146484375,6.298828125,-12.744140625,-62.841796875
5.803927183151245,1680680779.9399974,-0.06689453125,0.18359375,-1.087158203125,10.8489990234375,6.81304931640625,3.326416015625,6.884765625,-12.744140625,-62.255859375
5.853928089141846,1680680779.9899983,0.2861328125,-0.025390625,-1.042236328125,2.44903564453125,0.4730224609375,-3.34930419921875,7.6171875,-12.3046875,-62.98828125
5.903928279876709,1680680780.0399985,0.104248046875,0.166015625,-0.978759765625,-1.41143798828125,-0.7171630859375,-2.9144287109375,7.03125,-11.71875,-62.40234375
5.953929662704468,1680680780.09,-0.06201171875,0.222412109375,-0.930908203125,0.02288818359375,2.87628173828125,-3.1585693359375,7.91015625,-12.890625,-61.5234375
6.00393009185791,1680680780.1400003,-0.073486328125,0.106689453125,-0.992431640625,3.12042236328125,2.08282470703125,0.6256103515625,7.6171875,-13.4765625,-61.81640625
6.053930759429932,1680680780.190001,0.195556640625,0.426025390625,-1.125732421875,-3.01361083984375,4.75311279296875,0.49591064453125,8.203125,-12.01171875,-62.109375
6.103931427001953,1680680780.2400017,0.5986328125,0.1708984375,-0.8818359375,-1.861572265625,-13.58795166015625,-1.41143798828125,7.6171875,-11.71875,-61.81640625
6.153932332992554,1680680780.2900026,-0.059814453125,0.49951171875,-0.9853515625,3.97491455078125,9.9029541015625,-2.58636474609375,8.349609375,-12.451171875,-62.255859375
6.203933238983154,1680680780.3400035,-0.082275390625,0.17919921875,-0.980224609375,-1.03759765625,-2.0904541015625,2.73895263671875,6.884765625,-12.744140625,-61.962890625
6.2539331912994385,1680680780.3900034,-0.03515625,0.483154296875,-0.93359375,6.8511962890625,4.11224365234375,2.44903564453125,7.763671875,-13.623046875,-61.376953125
6.303934097290039,1680680780.4400043,0.102294921875,0.112548828125,-0.976806640625,3.10516357421875,-1.74713134765625,1.94549560546875,8.203125,-12.890625,-62.6953125
6.353934049606323,1680680780.4900043,0.185791015625,0.239501953125,-0.91162109375,1.77764892578125,1.27410888671875,1.0528564453125,7.32421875,-12.59765625,-62.109375
6.4039342403411865,1680680780.5400045,0.095947265625,0.280517578125,-0.916748046875,5.10406494140625,3.16619873046875,-0.579833984375,8.49609375,-12.01171875,-61.5234375
6.453934192657471,1680680780.5900044,-0.009033203125,0.243896484375,-1.061767578125,8.48388671875,0.87738037109375,1.434326171875,8.203125,-13.4765625,-62.6953125
6.503934621810913,1680680780.6400049,0.01220703125,0.15625,-0.98193359375,8.1787109375,-0.2593994140625,0.43487548828125,8.349609375,-11.279296875,-62.255859375
6.553935766220093,1680680780.690006,-0.068603515625,0.177978515625,-0.898681640625,8.99505615234375,7.659912109375,1.556396484375,9.08203125,-13.4765625,-61.81640625
6.603937149047852,1680680780.7400074,0.062255859375,0.230224609375,-0.999755859375,7.83538818359375,3.39508056640625,1.57928466796875,9.521484375,-12.451171875,-61.669921875
6.653937578201294,1680680780.7900078,0.090576171875,0.07421875,-0.7626953125,5.28717041015625,1.97601318359375,5.0811767578125,9.08203125,-12.01171875,-62.40234375
6.703938007354736,1680680780.8400083,-0.535888671875,1.051025390625,-0.711181640625,0.5645751953125,26.49688720703125,1.6937255859375,9.228515625,-11.865234375,-62.548828125
6.753938913345337,1680680780.8900092,-0.193115234375,0.14111328125,-1.2216796875,13.14544677734375,2.3651123046875,3.91387939453125,9.814453125,-13.623046875,-59.912109375
6.803939580917358,1680680780.9400098,0.11376953125,0.298828125,-1.009765625,-2.105712890625,-3.31878662109375,6.47735595703125,8.935546875,-12.451171875,-60.498046875
6.853940963745117,1680680780.9900112,0.14453125,0.079345703125,-0.971435546875,3.25775146484375,2.83050537109375,2.8533935546875,9.814453125,-13.623046875,-63.134765625
6.903942584991455,1680680781.0400128,0.083984375,0.4130859375,-1.087646484375,4.974365234375,2.9449462890625,1.2664794921875,10.400390625,-12.744140625,-61.962890625
6.953942537307739,1680680781.0900128,0.03271484375,0.016357421875,-0.984619140625,-1.9378662109375,0.42724609375,3.82232666015625,11.279296875,-13.330078125,-61.376953125
7.003944158554077,1680680781.1400144,-0.04150390625,0.269775390625,-1.017822265625,0.701904296875,2.83050537109375,1.617431640625,10.83984375,-13.4765625,-62.109375
7.0539445877075195,1680680781.1900148,0.15576171875,0.01318359375,-0.98046875,-2.01416015625,-0.35858154296875,0.64849853515625,9.814453125,-11.572265625,-61.962890625
7.103945255279541,1680680781.2400155,0.157958984375,0.193603515625,-0.9853515625,-0.87738037109375,-0.67138671875,-1.25885009765625,10.693359375,-12.451171875,-61.962890625
7.153945446014404,1680680781.2900157,-0.0771484375,0.1103515625,-0.988525390625,-0.08392333984375,3.2806396484375,-1.2664794921875,9.814453125,-13.037109375,-61.376953125
7.203945636749268,1680680781.340016,0.01171875,0.2841796875,-0.862060546875,0.732421875,0.42724609375,-3.65447998046875,10.400390625,-13.623046875,-61.962890625
7.253945827484131,1680680781.390016,0.029541015625,0.127197265625,-0.71826171875,1.01470947265625,4.6234130859375,-5.68389892578125,9.9609375,-12.890625,-60.3515625
7.303945779800415,1680680781.440016,-0.073974609375,0.006103515625,-0.783447265625,-9.1094970703125,4.43267822265625,-1.30462646484375,9.66796875,-13.4765625,-61.81640625
7.353946685791016,1680680781.490017,0.29736328125,-0.012939453125,-1.23486328125,-1.9378662109375,-0.762939453125,2.02178955078125,10.83984375,-13.4765625,-61.5234375
7.403947114944458,1680680781.5400174,0.201416015625,-0.0654296875,-1.02197265625,4.5318603515625,5.767822265625,-1.0528564453125,9.375,-13.18359375,-61.81640625
7.453947305679321,1680680781.5900176,-0.3037109375,0.052001953125,-1.35400390625,-6.62994384765625,2.62451171875,0.06103515625,9.08203125,-13.4765625,-61.23046875
7.503948450088501,1680680781.6400187,-0.028076171875,-0.402587890625,-0.93505859375,3.39508056640625,8.48388671875,1.02996826171875,11.279296875,-13.037109375,-60.791015625
7.553948879241943,1680680781.6900191,0.0224609375,0.355712890625,-1.099365234375,15.58685302734375,-5.37872314453125,3.0975341796875,11.42578125,-12.59765625,-61.5234375
7.603950500488281,1680680781.7400208,0.109619140625,0.2060546875,-1.01953125,0.274658203125,-1.7547607421875,2.838134765625,10.400390625,-13.330078125,-61.669921875
7.65395188331604,1680680781.7900221,-0.04150390625,0.222900390625,-0.992919921875,-0.274658203125,1.5716552734375,0.4425048828125,10.546875,-13.4765625,-62.40234375
7.703952074050903,1680680781.8400223,0.066650390625,0.12890625,-1.063720703125,0.579833984375,-1.22833251953125,2.83050537109375,12.158203125,-12.451171875,-62.255859375
7.753952503204346,1680680781.8900228,0.1044921875,0.1279296875,-0.97607421875,-0.98419189453125,2.38800048828125,-0.6561279296875,10.546875,-14.6484375,-61.23046875
7.80395245552063,1680680781.9400227,0.0732421875,0.22021484375,-1.058837890625,-1.89208984375,0.70953369140625,-0.32806396484375,11.1328125,-12.890625,-61.23046875
7.85395359992981,1680680781.9900239,0.07275390625,0.541015625,-1.090087890625,4.1046142578125,2.70843505859375,-5.6610107421875,10.83984375,-13.4765625,-61.81640625
7.903954029083252,1680680782.0400243,0.02880859375,-0.163818359375,-0.931640625,-5.8441162109375,-0.96893310546875,1.007080078125,11.572265625,-14.501953125,-61.962890625
7.9539549350738525,1680680782.0900252,0.02197265625,0.358642578125,-1.031005859375,1.739501953125,2.38037109375,0.6561279296875,11.42578125,-12.59765625,-61.23046875
8.003954887390137,1680680782.1400251,0.0986328125,0.1396484375,-0.987548828125,-3.18145751953125,0.5950927734375,1.8157958984375,10.546875,-12.890625,-61.81640625
8.053956031799316,1680680782.1900263,-0.010009765625,0.16259765625,-1.058837890625,0.885009765625,1.93023681640625,1.2359619140625,10.400390625,-11.865234375,-61.083984375
8.103956460952759,1680680782.2400267,0.025146484375,0.24267578125,-0.995361328125,2.7008056640625,2.593994140625,0.70953369140625,10.25390625,-13.18359375,-61.23046875
8.153956651687622,1680680782.290027,0.07666015625,0.219970703125,-0.99462890625,-1.678466796875,1.12152099609375,1.2969970703125,10.25390625,-12.59765625,-60.64453125
8.203957080841064,1680680782.3400273,0.038818359375,0.164794921875,-1.00927734375,0.9918212890625,-1.94549560546875,0.43487548828125,10.986328125,-12.158203125,-61.669921875
8.253957033157349,1680680782.3900273,0.07080078125,0.151611328125,-0.97705078125,2.69317626953125,1.89971923828125,0.91552734375,11.572265625,-13.037109375,-60.791015625
8.30395793914795,1680680782.4400282,0.04931640625,0.20556640625,-1.01513671875,2.60162353515625,1.33514404296875,0.18310546875,10.83984375,-13.4765625,-61.23046875
8.353959083557129,1680680782.4900293,0.057373046875,0.094482421875,-0.998779296875,0.4425048828125,0.8087158203125,-0.06103515625,11.572265625,-13.037109375,-61.083984375
8.40395975112915,1680680782.54003,0.05419921875,0.198974609375,-0.98095703125,-0.29754638671875,0.09918212890625,0.6866455078125,11.572265625,-13.330078125,-61.376953125
8.453960180282593,1680680782.5900304,0.06640625,0.001708984375,-1.0361328125,-0.152587890625,3.83758544921875,0.7476806640625,11.279296875,-13.916015625,-61.376953125
8.503961563110352,1680680782.6400318,0.022216796875,0.189697265625,-1.004638671875,0.7171630859375,2.2735595703125,1.4190673828125,10.546875,-13.4765625,-61.5234375
8.553961515426636,1680680782.6900318,0.0419921875,0.073974609375,-0.99169921875,0.12969970703125,0.41961669921875,2.166748046875,11.279296875,-11.865234375,-61.376953125
8.603962659835815,1680680782.740033,0.056884765625,0.132080078125,-0.998291015625,0.03814697265625,1.861572265625,1.556396484375,10.693359375,-13.330078125,-61.376953125
8.653962850570679,1680680782.790033,0.031982421875,0.0576171875,-1.009033203125,-1.8310546875,1.2664794921875,0.93841552734375,11.279296875,-13.623046875,-60.791015625
8.703963041305542,1680680782.8400333,0.043212890625,0.091552734375,-0.99609375,-2.6397705078125,1.007080078125,-0.42724609375,12.01171875,-14.0625,-60.9375
8.753963232040405,1680680782.8900335,0.056396484375,0.123779296875,-1.01123046875,-2.8533935546875,1.251220703125,-0.4730224609375,10.986328125,-12.451171875,-61.962890625
8.803963899612427,1680680782.9400342,0.081787109375,0.1484375,-1.019775390625,-2.55584716796875,1.4801025390625,-0.6866455078125,9.9609375,-13.4765625,-61.23046875
8.85396409034729,1680680782.9900343,-0.00537109375,0.23193359375,-1.0947265625,-1.50299072265625,-0.49591064453125,-1.03759765625,10.107421875,-12.451171875,-60.791015625
8.903964757919312,1680680783.040035,0.116455078125,-0.059814453125,-1.014404296875,2.20489501953125,-1.46484375,0.83160400390625,10.986328125,-13.623046875,-61.376953125
8.95396614074707,1680680783.0900364,-0.005615234375,0.062744140625,-0.977294921875,-2.471923828125,5.50079345703125,1.39617919921875,10.83984375,-13.18359375,-61.23046875
9.003967046737671,1680680783.1400373,-0.189697265625,0.354736328125,-1.02685546875,-1.97601318359375,-3.56292724609375,-0.5035400390625,10.546875,-12.01171875,-62.109375
9.053967475891113,1680680783.1900377,0.1025390625,-0.173095703125,-1.02490234375,-2.3956298828125,2.410888671875,3.79180908203125,10.83984375,-13.18359375,-61.5234375
9.103968620300293,1680680783.2400389,-0.090087890625,0.579345703125,-0.77734375,7.62176513671875,4.2724609375,-3.143310546875,10.986328125,-13.330078125,-61.669921875
9.153968811035156,1680680783.290039,-0.205322265625,0.065673828125,-0.857177734375,-8.36944580078125,10.0250244140625,2.95257568359375,12.01171875,-13.18359375,-60.9375
9.203969955444336,1680680783.3400402,0.00341796875,0.0380859375,-0.75244140625,-3.6163330078125,2.8533935546875,-2.18963623046875,11.279296875,-12.451171875,-61.669921875
9.253970861434937,1680680783.390041,0.232421875,0.22119140625,-1.064453125,1.89971923828125,2.105712890625,1.800537109375,12.3046875,-13.4765625,-61.81640625
9.303972244262695,1680680783.4400425,0.01025390625,-0.007568359375,-1.0029296875,-1.02996826171875,1.2969970703125,-0.57220458984375,11.42578125,-12.59765625,-60.9375
9.353972434997559,1680680783.4900427,-0.098876953125,0.1865234375,-0.9384765625,0.37384033203125,1.59454345703125,0.4425048828125,11.1328125,-14.0625,-61.23046875
9.403973579406738,1680680783.5400438,0.094482421875,0.0439453125,-1.090576171875,3.07464599609375,-7.33184814453125,4.0130615234375,11.71875,-13.18359375,-60.64453125
9.453974962234497,1680680783.5900452,0.1279296875,0.24365234375,-0.933349609375,-5.218505859375,-0.6256103515625,1.38092041015625,10.83984375,-13.76953125,-61.23046875
9.503976345062256,1680680783.6400466,0.058837890625,-0.00537109375,-1.080322265625,1.97601318359375,0.9613037109375,1.68609619140625,11.1328125,-12.59765625,-61.5234375
9.553977012634277,1680680783.6900473,0.0419921875,0.16357421875,-0.9072265625,1.3427734375,5.63812255859375,0.67138671875,9.228515625,-12.744140625,-59.033203125
9.60397720336914,1680680783.7400475,0.014404296875,0.190673828125,-1.067138671875,1.251220703125,-0.20599365234375,-0.1220703125,10.986328125,-13.623046875,-61.083984375
9.653979063034058,1680680783.7900493,0.002197265625,0.176025390625,-1.00927734375,3.36456298828125,0.08392333984375,1.9378662109375,12.158203125,-12.744140625,-60.791015625
9.7039794921875,1680680783.8400497,0.166015625,0.111572265625,-1.059814453125,0.1068115234375,2.05230712890625,2.29644775390625,10.986328125,-12.744140625,-61.669921875
9.7539803981781,1680680783.8900506,-0.04833984375,0.275390625,-1.060791015625,4.34112548828125,3.53240966796875,-0.8544921875,10.400390625,-12.744140625,-62.255859375
9.803981065750122,1680680783.9400513,0.02392578125,0.180419921875,-1.041748046875,3.84521484375,-0.4425048828125,-0.41961669921875,11.865234375,-13.330078125,-61.962890625
9.853981733322144,1680680783.990052,-0.051513671875,0.460693359375,-0.880126953125,7.3089599609375,-0.69427490234375,3.936767578125,10.986328125,-12.451171875,-62.548828125
9.903981685638428,1680680784.040052,0.033935546875,0.20361328125,-1.0693359375,2.55584716796875,5.5389404296875,-1.31988525390625,12.59765625,-12.59765625,-60.3515625
9.953982830047607,1680680784.090053,0.185791015625,0.0966796875,-1.00390625,3.204345703125,0.91552734375,-0.29754638671875,10.693359375,-13.330078125,-61.962890625
10.00398325920105,1680680784.1400535,0.1513671875,-0.04638671875,-1.03564453125,2.75421142578125,-0.08392333984375,3.94439697265625,12.744140625,-14.208984375,-60.791015625
10.053983926773071,1680680784.1900542,0.0146484375,-0.031982421875,-0.9716796875,1.2054443359375,5.07354736328125,0.152587890625,12.59765625,-12.59765625,-61.23046875
10.103984832763672,1680680784.240055,0.167724609375,0.02490234375,-1.024169921875,0.84686279296875,1.7547607421875,5.47027587890625,12.59765625,-13.18359375,-60.64453125
10.15398621559143,1680680784.2900565,0.23095703125,0.16162109375,-1.029052734375,1.617431640625,-1.16729736328125,4.50897216796875,12.158203125,-12.451171875,-61.376953125
10.203986406326294,1680680784.3400567,0.0927734375,0.09130859375,-0.99169921875,1.16729736328125,3.0517578125,-0.1068115234375,12.59765625,-13.18359375,-59.765625
10.253987312316895,1680680784.3900576,0.180419921875,0.206298828125,-1.047607421875,-0.701904296875,0.9918212890625,2.50244140625,10.546875,-12.3046875,-60.9375
10.303988933563232,1680680784.4400592,0.248779296875,0.181884765625,-1.023681640625,1.60980224609375,3.173828125,0.86212158203125,13.037109375,-12.451171875,-61.669921875
10.35399055480957,1680680784.4900608,0.21142578125,0.093017578125,-0.995361328125,1.0223388671875,2.44140625,2.12860107421875,12.3046875,-12.01171875,-60.64453125
10.403991937637329,1680680784.5400622,0.0654296875,0.097900390625,-0.8466796875,-0.83160400390625,7.53021240234375,0.80108642578125,12.59765625,-12.3046875,-60.3515625
10.453992366790771,1680680784.5900626,0.2529296875,0.164794921875,-1.162353515625,2.72369384765625,-2.99072265625,-0.4425048828125,13.18359375,-12.3046875,-59.765625
10.503992319107056,1680680784.6400626,0.198974609375,-0.014404296875,-1.110595703125,2.3651123046875,-0.0457763671875,-1.007080078125,12.890625,-12.01171875,-58.59375
10.553993225097656,1680680784.6900635,0.23193359375,0.111572265625,-1.0234375,6.34765625,-0.69427490234375,-1.71661376953125,13.623046875,-14.208984375,-58.447265625
10.60399317741394,1680680784.7400634,0.250244140625,-0.116943359375,-0.932373046875,0.70953369140625,-8.819580078125,1.73187255859375,12.158203125,-15.966796875,-61.083984375
10.653993129730225,1680680784.7900634,0.173583984375,0.0263671875,-1.1591796875,1.83868408203125,-4.95147705078125,-1.8463134765625,14.35546875,-16.11328125,-63.8671875
10.703993797302246,1680680784.840064,0.017333984375,0.224853515625,-1.246826171875,8.9263916015625,-18.3868408203125,-2.7618408203125,12.890625,-15.52734375,-67.96875
10.753995656967163,1680680784.890066,-0.13330078125,0.149658203125,-0.8291015625,3.7689208984375,-16.7999267578125,-2.471923828125,11.42578125,-10.25390625,-69.43359375
10.803996562957764,1680680784.9400668,-0.295166015625,0.15234375,-0.958740234375,6.06536865234375,12.41302490234375,-4.12750244140625,12.890625,-7.03125,-70.8984375
10.853997707366943,1680680784.990068,0.3115234375,-0.12841796875,-1.200439453125,4.90570068359375,-7.92694091796875,-9.36126708984375,12.59765625,-4.1015625,-67.96875
10.903998374938965,1680680785.0400686,0.329345703125,0.263916015625,-1.26904296875,7.2174072265625,3.631591796875,0.244140625,12.59765625,-1.7578125,-60.9375
10.953999042510986,1680680785.0900693,0.07666015625,-0.372802734375,-0.838623046875,-4.73785400390625,2.14385986328125,10.101318359375,13.330078125,-1.904296875,-56.103515625
11.003999471664429,1680680785.1400697,0.388916015625,0.301513671875,-1.269287109375,-4.364013671875,8.758544921875,17.25006103515625,14.6484375,-6.4453125,-49.51171875
11.053999662399292,1680680785.19007,0.072265625,-0.218017578125,-0.72705078125,-6.52313232421875,4.4708251953125,26.95465087890625,14.35546875,-11.71875,-48.046875
11.103999853134155,1680680785.24007,-0.049560546875,0.2353515625,-1.568115234375,-7.2479248046875,-0.34332275390625,26.69525146484375,13.4765625,-16.69921875,-50.390625
11.154000759124756,1680680785.290071,0.365234375,0.337890625,-0.884765625,-11.0321044921875,-4.5013427734375,8.60595703125,12.59765625,-18.45703125,-53.61328125
11.20400071144104,1680680785.340071,0.039306640625,-0.07275390625,-1.154052734375,5.645751953125,11.3983154296875,-3.753662109375,12.3046875,-20.5078125,-58.30078125
11.254002332687378,1680680785.3900726,0.053466796875,-0.20947265625,-1.476318359375,-21.99554443359375,-0.8392333984375,3.62396240234375,11.71875,-21.97265625,-64.74609375
11.3040030002594,1680680785.4400733,0.0771484375,0.40478515625,-1.00146484375,5.2337646484375,6.6680908203125,-4.34112548828125,11.865234375,-15.966796875,-74.853515625
11.354004383087158,1680680785.4900746,0.408203125,-0.3310546875,-0.541015625,-11.95526123046875,-0.30517578125,-4.08935546875,10.986328125,-6.298828125,-77.197265625
11.404004335403442,1680680785.5400746,-0.013671875,0.02001953125,-0.631591796875,-8.82720947265625,1.74713134765625,2.08282470703125,10.25390625,-3.515625,-66.796875
11.454005002975464,1680680785.5900753,2.0,-0.082275390625,2.0,-35.10284423828125,8.2855224609375,-13.08441162109375,11.42578125,-7.6171875,-61.5234375
11.504006147384644,1680680785.6400764,-0.994873046875,1.321533203125,2.0,31.27288818359375,115.91339111328125,-32.21893310546875,11.1328125,-12.01171875,-62.109375
11.554007768630981,1680680785.690078,0.483642578125,-0.51220703125,0.138671875,38.75732421875,88.6993408203125,-27.069091796875,10.546875,-11.42578125,-60.9375
11.604008197784424,1680680785.7400784,-0.9033203125,-0.166259765625,-0.3427734375,-20.28656005859375,54.229736328125,-18.48602294921875,11.71875,-15.234375,-61.81640625
11.654009819030762,1680680785.79008,-0.298583984375,0.10546875,-0.025146484375,8.331298828125,68.9239501953125,-34.56878662109375,10.693359375,-20.068359375,-70.458984375
11.704010248184204,1680680785.8400805,-0.998046875,0.484619140625,-1.46484375,16.68548583984375,27.90069580078125,-17.6544189453125,9.375,-16.69921875,-84.08203125
11.754010438919067,1680680785.8900807,-0.5869140625,-0.256591796875,-0.23095703125,5.34820556640625,78.5064697265625,7.110595703125,9.9609375,-5.56640625,-86.1328125
11.804011106491089,1680680785.9400814,0.8291015625,-0.066162109375,-1.346923828125,13.93890380859375,-2.227783203125,4.8675537109375,12.451171875,1.318359375,-79.541015625
11.85401177406311,1680680785.990082,0.500244140625,-0.08642578125,-0.06298828125,-22.66693115234375,-9.735107421875,1.434326171875,11.71875,1.171875,-66.796875
11.904012203216553,1680680786.0400825,-0.03076171875,-0.7958984375,-0.04150390625,-5.54656982421875,24.62005615234375,17.364501953125,12.451171875,-1.611328125,-57.275390625
11.954013109207153,1680680786.0900834,-0.051513671875,0.29052734375,-1.39111328125,1.80816650390625,-11.4898681640625,31.04400634765625,13.4765625,-6.73828125,-50.9765625
12.004014492034912,1680680786.1400847,-0.353271484375,-0.254150390625,-1.2451171875,-5.72967529296875,8.94927978515625,14.76287841796875,12.59765625,-12.3046875,-49.8046875
12.054015874862671,1680680786.1900861,-0.133056640625,0.187744140625,-1.095458984375,-13.55743408203125,2.49481201171875,1.739501953125,12.59765625,-16.40625,-54.19921875
12.104016780853271,1680680786.240087,0.37109375,-0.15283203125,-0.931396484375,-17.15087890625,-9.8876953125,6.927490234375,11.42578125,-14.6484375,-58.30078125
12.154017925262451,1680680786.2900882,0.33984375,0.198974609375,-0.661865234375,-1.67083740234375,8.9263916015625,-5.45501708984375,10.400390625,-14.794921875,-61.376953125
12.204018592834473,1680680786.3400888,0.213134765625,0.1318359375,-0.544189453125,3.3111572265625,-0.152587890625,-8.7890625,11.1328125,-12.01171875,-62.6953125
12.254018545150757,1680680786.3900888,0.244873046875,0.4072265625,-1.580078125,14.9078369140625,-10.6201171875,-20.74432373046875,10.986328125,-12.744140625,-59.619140625
12.304019927978516,1680680786.4400902,0.32275390625,0.076904296875,-1.037841796875,-2.25830078125,-8.026123046875,-21.4996337890625,11.572265625,-14.501953125,-59.033203125
12.354021549224854,1680680786.4900918,-0.19384765625,-0.155517578125,-0.248046875,7.7667236328125,14.03045654296875,-27.2216796875,11.279296875,-16.259765625,-64.599609375
12.404021978378296,1680680786.5400922,0.122802734375,-0.041015625,-1.864501953125,-0.8544921875,-16.90673828125,-14.06097412109375,10.693359375,-13.330078125,-69.287109375
12.454023361206055,1680680786.5900936,-0.011962890625,-0.33837890625,-0.96337890625,12.054443359375,17.53997802734375,-6.89697265625,11.1328125,-7.91015625,-71.19140625
12.504024982452393,1680680786.6400952,0.343017578125,0.112060546875,-0.67919921875,-3.6773681640625,-13.519287109375,4.2724609375,12.890625,-3.80859375,-61.5234375
12.554026126861572,1680680786.6900964,0.2294921875,0.256103515625,-1.480712890625,27.374267578125,7.72857666015625,7.0953369140625,13.623046875,-7.177734375,-49.951171875
12.604027271270752,1680680786.7400975,0.32763671875,-0.328857421875,-1.329345703125,-6.7138671875,-4.15802001953125,12.115478515625,13.037109375,-15.380859375,-48.779296875
12.654027223587036,1680680786.7900975,0.01220703125,0.315673828125,-1.2060546875,9.8419189453125,-4.791259765625,4.1046142578125,12.744140625,-19.189453125,-53.759765625
12.704029083251953,1680680786.8400993,-0.189697265625,0.0390625,-0.80810546875,-2.166748046875,6.53076171875,-0.48065185546875,12.158203125,-22.705078125,-62.548828125
12.754030704498291,1680680786.890101,0.52880859375,0.74072265625,-1.621826171875,9.33837890625,-6.5155029296875,-6.24847412109375,11.71875,-18.1640625,-76.7578125
12.804030895233154,1680680786.9401011,0.16650390625,0.04248046875,-0.3173828125,-18.49365234375,18.2037353515625,-5.9051513671875,12.451171875,-4.833984375,-73.095703125
12.854032039642334,1680680786.9901023,0.042236328125,0.005615234375,-0.513427734375,1.76239013671875,-10.10894775390625,-0.946044921875,13.916015625,-10.400390625,-60.205078125
12.904031991958618,1680680787.0401022,-0.11328125,-0.197509765625,-0.259765625,-2.8839111328125,15.380859375,3.74603271484375,12.59765625,-12.01171875,-61.23046875
12.954031944274902,1680680787.0901022,-0.18798828125,0.280517578125,-0.34033203125,15.167236328125,8.392333984375,-5.05828857421875,13.330078125,-14.501953125,-60.791015625
13.004032373428345,1680680787.1401026,0.11865234375,-0.150390625,-0.928466796875,10.5438232421875,29.693603515625,7.46917724609375,12.59765625,-18.75,-63.57421875
13.054032802581787,1680680787.190103,0.20556640625,0.340087890625,-0.90966796875,5.340576171875,-17.2576904296875,0.946044921875,11.279296875,-19.482421875,-77.490234375
13.10403323173523,1680680787.2401035,-0.3056640625,-0.105712890625,-0.713134765625,9.21630859375,31.02874755859375,0.79345703125,12.451171875,-7.177734375,-87.744140625
13.154034852981567,1680680787.290105,0.473876953125,0.488525390625,-0.49951171875,28.1829833984375,35.8123779296875,-10.711669921875,12.890625,2.05078125,-72.36328125
13.20403504371643,1680680787.3401053,-0.436767578125,-0.640625,-0.462158203125,-10.26153564453125,51.666259765625,-1.9378662109375,14.35546875,-4.39453125,-55.37109375
13.25403642654419,1680680787.3901067,-0.90234375,-0.611572265625,-0.56640625,-32.53936767578125,6.9580078125,20.751953125,14.35546875,-10.546875,-49.51171875
13.30403733253479,1680680787.4401076,0.404541015625,0.416015625,-1.91064453125,11.8255615234375,-20.44677734375,14.22119140625,15.087890625,-16.259765625,-52.880859375
13.354038715362549,1680680787.490109,0.379150390625,-0.1748046875,0.31201171875,8.56781005859375,17.64678955078125,20.172119140625,14.794921875,-15.673828125,-58.154296875
13.404040098190308,1680680787.5401103,0.008056640625,-0.332275390625,-0.102294921875,-7.8887939453125,11.16943359375,24.17755126953125,14.0625,-13.76953125,-61.5234375
13.454040765762329,1680680787.590111,0.47705078125,0.224853515625,-1.370361328125,-5.30242919921875,-21.942138671875,12.80975341796875,12.890625,-11.71875,-59.765625
13.504042148590088,1680680787.6401124,0.2685546875,0.198974609375,2.0,-1.3275146484375,-38.74969482421875,-5.42449951171875,12.451171875,-16.552734375,-61.962890625
13.554043054580688,1680680787.6901133,-0.30029296875,-0.244873046875,-1.996826171875,6.53839111328125,28.66363525390625,-2.288818359375,11.865234375,-10.400390625,-71.630859375
13.60404372215271,1680680787.740114,0.038818359375,-0.0498046875,2.0,-1.77001953125,-17.669677734375,4.5013427734375,13.4765625,-3.515625,-60.64453125
13.654044389724731,1680680787.7901146,0.5595703125,0.3544921875,2.0,19.63043212890625,-44.94476318359375,13.00811767578125,14.35546875,-11.1328125,-48.33984375
13.70404577255249,1680680787.840116,0.09716796875,0.052978515625,0.16259765625,3.5400390625,29.71649169921875,20.82061767578125,13.916015625,-17.431640625,-50.830078125
13.754047393798828,1680680787.8901176,1.20556640625,-0.4384765625,-1.396240234375,-10.65826416015625,-45.15838623046875,27.8778076171875,13.330078125,-19.775390625,-58.740234375
13.80404806137085,1680680787.9401183,-0.0380859375,0.135009765625,-1.458251953125,0.54168701171875,-36.56005859375,24.42169189453125,12.451171875,-18.017578125,-74.853515625
13.854048728942871,1680680787.990119,-0.309814453125,0.244384765625,-0.892822265625,-15.045166015625,6.2255859375,11.016845703125,13.18359375,-3.22265625,-70.8984375
13.904050350189209,1680680788.0401206,0.109130859375,-0.0654296875,-1.4462890625,-14.83917236328125,13.40484619140625,5.13458251953125,12.3046875,-8.7890625,-60.05859375
13.95405125617981,1680680788.0901215,0.612060546875,-0.370361328125,-1.788330078125,-2.37274169921875,18.89801025390625,10.93292236328125,14.794921875,-10.693359375,-61.376953125
14.00405216217041,1680680788.1401224,0.327880859375,0.015380859375,-1.831787109375,-22.28546142578125,-23.468017578125,12.481689453125,13.037109375,-18.017578125,-64.306640625
14.05405306816101,1680680788.1901233,0.36865234375,0.31640625,2.0,5.767822265625,-27.64892578125,-0.18310546875,10.400390625,-13.916015625,-85.107421875
14.104053258895874,1680680788.2401235,1.076904296875,0.11181640625,-1.67919921875,3.173828125,35.3240966796875,5.7525634765625,12.451171875,4.833984375,-75.146484375
14.154053449630737,1680680788.2901237,-0.55810546875,0.08251953125,-1.309814453125,-13.74053955078125,51.055908203125,-3.1890869140625,13.623046875,-3.076171875,-54.931640625
14.204054594039917,1680680788.3401248,0.140869140625,0.513916015625,2.0,28.32794189453125,27.22930908203125,10.32257080078125,14.0625,-13.76953125,-50.68359375
14.25405478477478,1680680788.390125,-0.638671875,-0.01416015625,-0.70703125,15.14434814453125,1.6326904296875,16.86859130859375,12.890625,-15.8203125,-59.1796875
14.304054737091064,1680680788.440125,-0.064453125,-0.03515625,-1.65380859375,-21.78192138671875,-78.01055908203125,11.22283935546875,11.865234375,-11.572265625,-61.376953125
14.354055166244507,1680680788.4901254,0.19970703125,0.083740234375,-1.51220703125,-17.3797607421875,-54.0313720703125,-3.4637451171875,10.83984375,-10.25390625,-58.88671875
14.404057025909424,1680680788.5401273,0.39453125,-0.193359375,2.0,5.76019287109375,-35.46905517578125,4.4708251953125,11.42578125,-12.59765625,-60.64453125
14.454058647155762,1680680788.590129,0.278076171875,0.25048828125,-0.30322265625,-6.927490234375,25.73394775390625,-2.18963623046875,10.107421875,-7.470703125,-71.044921875
14.504059314727783,1680680788.6401296,0.39990234375,-0.0576171875,-1.96435546875,18.21136474609375,23.98681640625,-11.5814208984375,12.01171875,-2.34375,-61.5234375
14.554059743881226,1680680788.69013,0.81884765625,-0.884033203125,-1.75341796875,-26.5655517578125,-26.4129638671875,-7.354736328125,14.0625,-11.1328125,-48.33984375
14.60405969619751,1680680788.74013,0.487060546875,-0.093017578125,0.06494140625,-16.998291015625,-9.21630859375,1.12152099609375,13.4765625,-16.9921875,-53.90625
14.654060363769531,1680680788.7901306,0.459716796875,0.452392578125,-1.483154296875,32.1807861328125,-39.3524169921875,-8.60595703125,11.71875,-19.62890625,-70.8984375
14.704061031341553,1680680788.8401313,1.295166015625,0.53125,-1.09326171875,23.13232421875,-28.4423828125,12.2222900390625,12.3046875,-2.9296875,-72.36328125
14.754061937332153,1680680788.8901322,-1.404541015625,0.216796875,-0.87158203125,-2.43377685546875,56.610107421875,1.6632080078125,13.916015625,-8.642578125,-60.205078125
14.804063081741333,1680680788.9401333,0.488525390625,0.318603515625,-1.696044921875,9.674072265625,33.6151123046875,8.75091552734375,13.330078125,-10.986328125,-60.205078125
14.854064226150513,1680680788.9901345,0.713134765625,0.343017578125,-1.5751953125,7.598876953125,14.80865478515625,9.3994140625,13.623046875,-18.896484375,-67.236328125
14.904064893722534,1680680789.0401351,0.104736328125,0.2890625,-0.627685546875,3.23486328125,22.19390869140625,24.95574951171875,10.986328125,-4.833984375,-86.572265625
14.954065322875977,1680680789.0901356,0.28662109375,-0.919921875,0.194580078125,15.51055908203125,36.3922119140625,46.3409423828125,13.18359375,3.515625,-62.6953125
15.004065752029419,1680680789.140136,0.227294921875,0.58837890625,-1.540283203125,-0.22125244140625,-2.716064453125,14.83154296875,12.890625,-4.98046875,-50.390625
15.054067373275757,1680680789.1901376,-0.272216796875,-0.135986328125,-1.69775390625,13.16070556640625,11.1846923828125,12.77923583984375,12.59765625,-14.35546875,-53.90625
15.10406756401062,1680680789.2401378,0.18994140625,-0.339599609375,-1.51611328125,-13.78631591796875,54.3670654296875,14.6636962890625,11.42578125,-12.59765625,-60.9375
15.154068946838379,1680680789.2901392,-0.884521484375,1.5595703125,2.0,34.66796875,-29.73175048828125,12.87078857421875,9.521484375,-8.642578125,-58.154296875
15.204070091247559,1680680789.3401403,0.61181640625,1.97802734375,2.0,47.36328125,-21.6217041015625,5.4473876953125,10.986328125,-11.865234375,-63.134765625
15.25407075881958,1680680789.390141,-0.465087890625,-0.02685546875,0.05908203125,-9.8876953125,36.00311279296875,6.76727294921875,9.814453125,-3.662109375,-71.044921875
15.304071426391602,1680680789.4401417,-0.51416015625,0.2919921875,-1.100830078125,-7.62939453125,18.524169921875,-7.37762451171875,13.18359375,-3.22265625,-51.85546875
15.354071855545044,1680680789.490142,0.32861328125,0.16943359375,-0.5224609375,-20.68328857421875,1.73187255859375,-7.476806640625,11.572265625,-15.673828125,-52.294921875
15.404073476791382,1680680789.5401437,0.6728515625,0.718994140625,-1.587646484375,13.641357421875,-36.7889404296875,-10.24627685546875,10.25390625,-19.3359375,-67.3828125
15.454073667526245,1680680789.590144,-0.109375,0.110595703125,-0.258544921875,7.95745849609375,17.52471923828125,-8.55255126953125,10.693359375,-1.904296875,-71.044921875
15.50407361984253,1680680789.6401439,-0.1005859375,0.06689453125,-0.559326171875,-1.31988525390625,5.01251220703125,-16.4337158203125,11.279296875,-8.349609375,-60.498046875
15.554074764251709,1680680789.690145,0.391845703125,0.623291015625,-0.79931640625,25.90179443359375,7.8887939453125,-15.28167724609375,12.890625,-11.71875,-60.05859375
15.60407567024231,1680680789.740146,0.4326171875,0.05322265625,-1.08251953125,0.40435791015625,-10.9405517578125,-11.57379150390625,10.693359375,-18.310546875,-74.560546875
15.654077053070068,1680680789.7901473,0.363037109375,0.33447265625,-1.570068359375,19.92034912109375,-11.0321044921875,-18.2952880859375,10.986328125,2.490234375,-80.126953125
15.70407748222351,1680680789.8401477,0.197509765625,-0.163818359375,-1.13232421875,11.16943359375,6.05010986328125,-18.4783935546875,12.158203125,-2.490234375,-55.224609375
15.754077911376953,1680680789.8901482,0.28271484375,-0.156982421875,-1.26513671875,18.91326904296875,-17.14324951171875,-17.4102783203125,13.037109375,-12.744140625,-49.658203125
15.804078340530396,1680680789.9401486,0.22314453125,0.315673828125,-1.18603515625,33.95843505859375,-1.251220703125,-1.77764892578125,13.037109375,-14.208984375,-59.326171875
15.854079484939575,1680680789.9901497,0.110595703125,-0.115478515625,-0.8525390625,15.54107666015625,11.5203857421875,-3.53240966796875,12.158203125,-10.400390625,-60.498046875
15.904081106185913,1680680790.0401514,0.4150390625,0.208740234375,-0.924560546875,28.06854248046875,-2.90679931640625,0.66375732421875,13.623046875,-14.794921875,-63.134765625
15.954081535339355,1680680790.0901518,-0.3134765625,-0.590087890625,0.180419921875,-4.8828125,11.6424560546875,2.3956298828125,13.76953125,-2.9296875,-66.2109375
16.004082441329956,1680680790.1401527,0.124755859375,0.38037109375,-1.734375,23.62823486328125,0.8392333984375,-0.2593994140625,15.8203125,-11.1328125,-46.875
16.05408239364624,1680680790.1901526,-0.08544921875,-0.313720703125,-0.56201171875,8.697509765625,-2.63214111328125,6.79779052734375,14.35546875,-19.62890625,-56.8359375
16.104082822799683,1680680790.240153,-0.31884765625,-0.080322265625,0.2353515625,-2.47955322265625,31.21185302734375,17.15087890625,14.0625,-7.91015625,-76.171875
16.154083490371704,1680680790.2901537,-0.18359375,-0.216796875,-0.730712890625,9.45281982421875,11.3983154296875,19.35577392578125,16.40625,-9.66796875,-59.1796875
16.204083681106567,1680680790.340154,-0.218994140625,-0.02001953125,-0.057373046875,-5.60760498046875,25.7720947265625,26.7486572265625,16.259765625,-12.158203125,-59.912109375
16.254084587097168,1680680790.3901548,0.2216796875,-0.476806640625,-1.197265625,-23.42987060546875,4.93621826171875,44.3878173828125,14.208984375,-17.431640625,-75.146484375
16.30408525466919,1680680790.4401555,0.344970703125,0.296142578125,-1.42822265625,-7.38525390625,-5.25665283203125,50.4302978515625,14.501953125,5.712890625,-72.216796875
16.35408663749695,1680680790.490157,0.15966796875,0.1826171875,-1.39013671875,-6.2713623046875,4.425048828125,56.90765380859375,15.380859375,-3.662109375,-49.072265625
16.404086589813232,1680680790.5401568,0.03857421875,0.385498046875,-0.749755859375,-20.57647705078125,15.31219482421875,48.63739013671875,14.794921875,-11.572265625,-56.396484375
16.45408844947815,1680680790.5901587,0.09619140625,0.435302734375,-1.41064453125,-24.63531494140625,1.09100341796875,33.63037109375,12.01171875,-6.73828125,-60.3515625
16.504088878631592,1680680790.6401591,-0.02490234375,-0.06982421875,-0.687255859375,-17.8680419921875,6.3323974609375,25.84075927734375,11.71875,-9.08203125,-63.28125
16.55409049987793,1680680790.6901608,-0.0205078125,0.072021484375,-0.757080078125,-23.834228515625,-1.7852783203125,12.02392578125,11.71875,1.46484375,-67.3828125
16.604092121124268,1680680790.7401624,0.155029296875,0.180908203125,-1.622314453125,-16.0980224609375,-8.3160400390625,13.885498046875,13.037109375,-6.298828125,-47.607421875
16.65409207344055,1680680790.7901623,0.037109375,0.22216796875,-1.4248046875,-9.94873046875,7.62939453125,9.3841552734375,10.83984375,-14.94140625,-58.59375
16.70409369468689,1680680790.840164,0.360595703125,0.106689453125,-0.8515625,-4.82177734375,8.52203369140625,3.04412841796875,9.228515625,-0.439453125,-75.146484375
16.75409483909607,1680680790.890165,0.01513671875,-0.136962890625,-0.36669921875,-23.01788330078125,22.59063720703125,1.617431640625,10.400390625,-6.298828125,-61.083984375
16.804094791412354,1680680790.940165,0.030029296875,0.222900390625,-0.846435546875,4.46319580078125,6.78253173828125,-5.859375,10.546875,-12.01171875,-62.6953125
16.854096174240112,1680680790.9901664,0.470947265625,0.32666015625,-0.722412109375,-6.21795654296875,1.3427734375,-5.126953125,8.49609375,1.7578125,-86.71875
16.904097318649292,1680680791.0401676,0.265380859375,0.027587890625,2.0,-11.505126953125,-5.2947998046875,-1.67083740234375,11.865234375,2.490234375,-52.880859375
16.954097270965576,1680680791.0901675,-0.6923828125,-0.311279296875,-0.60302734375,17.8070068359375,22.59063720703125,7.89642333984375,10.546875,-10.83984375,-53.90625
17.005475282669067,1680680791.1415455,0.10498046875,0.57373046875,-1.18994140625,-4.1046142578125,-25.91705322265625,6.4697265625,9.66796875,-7.03125,-61.23046875
17.05547595024109,1680680791.1915462,0.219970703125,0.463623046875,-1.5986328125,5.77545166015625,-23.58245849609375,-2.93731689453125,8.7890625,-9.9609375,-62.109375
17.10547685623169,1680680791.241547,-0.031982421875,0.34521484375,-0.900390625,19.27947998046875,23.3306884765625,-7.9803466796875,9.08203125,2.34375,-64.74609375
17.15547823905945,1680680791.2915485,0.465576171875,0.53857421875,-1.650634765625,6.96563720703125,-5.48553466796875,-18.44024658203125,10.107421875,-11.572265625,-48.486328125
17.20547914505005,1680680791.3415494,-0.41943359375,-0.051513671875,-0.6953125,-25.0701904296875,20.050048828125,-20.68328857421875,7.91015625,-16.11328125,-70.60546875
17.255479335784912,1680680791.3915496,-0.01806640625,0.08642578125,-0.82177734375,16.89910888671875,2.74658203125,-17.0440673828125,9.814453125,-2.197265625,-61.083984375
17.305479526519775,1680680791.4415498,-0.40625,-0.048095703125,-0.34814453125,-4.730224609375,9.81903076171875,-8.575439453125,8.642578125,-8.935546875,-60.205078125
17.35547971725464,1680680791.49155,-0.042724609375,-0.40966796875,-0.149658203125,-11.260986328125,22.02606201171875,0.91552734375,9.66796875,-14.35546875,-69.43359375
17.405481100082397,1680680791.5415514,-0.064453125,-0.196533203125,-0.668701171875,-21.17919921875,4.18853759765625,4.7760009765625,8.935546875,7.763671875,-77.197265625
17.45548105239868,1680680791.5915513,-0.07763671875,-0.17626953125,-1.1591796875,-23.73504638671875,6.40106201171875,1.77764892578125,12.744140625,-3.076171875,-50.537109375
17.50548219680786,1680680791.6415524,0.18603515625,-0.144287109375,-1.17578125,-8.87298583984375,2.31170654296875,-3.7994384765625,9.814453125,-10.400390625,-58.740234375
17.55548357963562,1680680791.6915538,0.232666015625,0.293212890625,-0.453369140625,19.1497802734375,27.07672119140625,-7.7056884765625,11.279296875,-6.591796875,-59.619140625
17.60548496246338,1680680791.7415552,-0.15673828125,-0.61181640625,-0.364013671875,-13.48876953125,-7.82012939453125,-4.57763671875,9.228515625,-7.177734375,-71.630859375
17.655486345291138,1680680791.7915566,-0.43212890625,0.47265625,-0.716552734375,10.94818115234375,20.7366943359375,-5.1116943359375,11.572265625,-3.955078125,-49.365234375
17.705487489700317,1680680791.8415577,0.53173828125,0.122802734375,-1.02001953125,2.8076171875,-7.1563720703125,-4.20379638671875,10.693359375,-15.966796875,-56.103515625
17.75548815727234,1680680791.8915584,0.109375,0.20947265625,-1.158935546875,14.79339599609375,4.8675537109375,4.23431396484375,9.521484375,-1.904296875,-74.267578125
17.80548930168152,1680680791.9415596,-0.327392578125,-0.287353515625,0.02685546875,-3.85284423828125,-10.29205322265625,2.66265869140625,10.546875,-8.7890625,-62.40234375
17.85548996925354,1680680791.9915602,0.185546875,-0.261962890625,-1.056884765625,-2.44903564453125,-4.7149658203125,14.09149169921875,11.279296875,-14.501953125,-64.599609375
17.905489921569824,1680680792.0415602,-0.06640625,0.3134765625,0.49462890625,18.39447021484375,36.62109375,4.58526611328125,8.935546875,3.662109375,-83.056640625
17.955490112304688,1680680792.0915604,0.09521484375,-0.157470703125,-1.39306640625,-22.45330810546875,-10.406494140625,11.016845703125,10.83984375,-0.5859375,-52.44140625
18.00549006462097,1680680792.1415603,0.244873046875,-0.35302734375,-1.114990234375,11.63482666015625,-19.9737548828125,23.06365966796875,11.1328125,-11.42578125,-55.95703125
18.05549120903015,1680680792.1915615,0.4208984375,0.40869140625,-1.758056640625,4.150390625,-29.97589111328125,8.15582275390625,11.865234375,-6.884765625,-62.255859375
18.10549283027649,1680680792.241563,0.0634765625,0.527099609375,-1.20751953125,13.7481689453125,7.75909423828125,11.54327392578125,10.546875,-10.83984375,-61.5234375
18.15549397468567,1680680792.2915642,0.0126953125,0.58837890625,-0.387451171875,-2.7618408203125,9.30023193359375,2.05230712890625,9.521484375,1.318359375,-64.306640625
18.20549440383911,1680680792.3415647,0.033203125,-0.196533203125,-1.0498046875,-11.74163818359375,9.14764404296875,-1.88446044921875,11.1328125,-11.71875,-49.8046875
18.25549554824829,1680680792.3915658,-0.155029296875,-0.0556640625,-1.035400390625,-3.631591796875,10.8184814453125,-0.0762939453125,8.349609375,-17.431640625,-68.408203125
18.30549669265747,1680680792.441567,0.010009765625,0.01416015625,-1.2451171875,9.57489013671875,-2.05230712890625,-2.54058837890625,10.986328125,-2.490234375,-62.255859375
18.35549759864807,1680680792.4915679,-0.1806640625,-0.023681640625,-1.568603515625,-13.06915283203125,2.73895263671875,-5.645751953125,10.83984375,-8.49609375,-60.9375
18.40549874305725,1680680792.541569,-0.491455078125,0.046142578125,-1.70361328125,-1.56402587890625,18.035888671875,11.68060302734375,9.375,-15.52734375,-72.94921875
18.455498695373535,1680680792.591569,0.156005859375,-0.318359375,-1.119873046875,5.43975830078125,-10.84136962890625,3.47137451171875,9.66796875,7.6171875,-76.7578125
18.505499839782715,1680680792.64157,-0.0654296875,-0.1474609375,-0.854736328125,-3.6773681640625,-2.166748046875,3.15093994140625,11.1328125,-2.34375,-50.68359375
18.555500984191895,1680680792.6915712,-0.366943359375,-0.2705078125,-0.758056640625,-6.7901611328125,-10.68878173828125,3.60107421875,10.693359375,-11.572265625,-55.810546875
18.605501651763916,1680680792.741572,-0.02587890625,0.3037109375,-0.78466796875,7.171630859375,22.14813232421875,9.1400146484375,10.986328125,-6.298828125,-61.669921875
18.655502319335938,1680680792.7915726,0.224365234375,0.68505859375,-1.232177734375,10.99395751953125,-10.8795166015625,-4.95147705078125,10.107421875,-10.986328125,-62.841796875
18.70550227165222,1680680792.8415725,0.182373046875,-0.057373046875,-1.490966796875,-0.41961669921875,-11.3525390625,13.02337646484375,9.9609375,2.05078125,-60.64453125
18.755502223968506,1680680792.8915725,-0.234130859375,-0.177001953125,-0.283447265625,-0.58746337890625,16.13616943359375,4.44793701171875,12.59765625,-8.7890625,-48.33984375
18.80550217628479,1680680792.9415724,0.056396484375,0.122314453125,-1.30419921875,-2.86865234375,2.9449462890625,10.4827880859375,10.546875,-18.1640625,-63.57421875
18.85550332069397,1680680792.9915736,-0.037353515625,0.029052734375,-1.064208984375,-5.30242919921875,4.0740966796875,10.406494140625,10.25390625,-0.29296875,-67.67578125
18.90550446510315,1680680793.0415747,-0.1220703125,0.307373046875,-1.015869140625,2.44903564453125,-2.38037109375,11.69586181640625,10.986328125,-6.591796875,-61.962890625
18.955506086349487,1680680793.0915763,0.26416015625,0.021484375,-1.1484375,-3.6773681640625,-3.9215087890625,12.939453125,9.521484375,-13.916015625,-65.478515625
19.00550627708435,1680680793.1415765,0.03662109375,-0.234375,-0.798583984375,-14.312744140625,-6.40106201171875,11.505126953125,9.08203125,5.56640625,-81.73828125
19.055506229400635,1680680793.1915765,-0.1630859375,-0.02392578125,-0.610595703125,-0.61798095703125,15.26641845703125,12.13836669921875,12.158203125,0.732421875,-52.880859375
19.105507373809814,1680680793.2415776,0.452392578125,0.269775390625,-0.661376953125,-1.68609619140625,-6.8359375,15.07568359375,10.400390625,-10.986328125,-55.810546875
19.155507802963257,1680680793.291578,0.169921875,0.307373046875,-0.861083984375,6.96563720703125,-4.0283203125,13.06915283203125,9.375,-7.03125,-61.81640625
19.20550799369812,1680680793.3415782,-0.22900390625,0.314697265625,-0.0908203125,3.8299560546875,31.0211181640625,8.65936279296875,9.814453125,-9.228515625,-63.134765625
19.255508422851562,1680680793.3915787,0.1376953125,0.133056640625,-1.319580078125,3.89862060546875,6.8206787109375,3.997802734375,9.08203125,3.80859375,-61.5234375
19.30551028251648,1680680793.4415805,0.0126953125,0.0302734375,-1.085205078125,-0.9307861328125,9.45281982421875,1.94549560546875,10.546875,-11.1328125,-50.09765625
19.355510473251343,1680680793.4915807,-0.33984375,0.3310546875,-1.483642578125,-4.2572021484375,2.14385986328125,-5.2337646484375,8.203125,-14.94140625,-72.0703125
19.405510663986206,1680680793.541581,0.3916015625,0.407470703125,-1.573486328125,17.31109619140625,-16.22772216796875,-2.41851806640625,9.66796875,-2.05078125,-60.9375
19.45551061630249,1680680793.5915809,-0.199462890625,-0.020263671875,-1.63720703125,-12.96234130859375,7.32421875,6.69097900390625,10.25390625,-5.859375,-61.81640625
19.50551152229309,1680680793.6415818,-0.006103515625,0.18212890625,-0.55224609375,7.781982421875,16.143798828125,2.5177001953125,9.228515625,-13.330078125,-68.115234375
19.55551290512085,1680680793.6915832,0.23193359375,0.05908203125,-1.039306640625,3.0059814453125,5.72967529296875,-1.46484375,8.203125,7.6171875,-80.2734375
19.60551404953003,1680680793.7415843,0.5185546875,0.2177734375,-1.7490234375,7.05718994140625,-26.31378173828125,-1.77001953125,9.9609375,0.5859375,-52.1484375
19.655514240264893,1680680793.7915845,0.2568359375,-0.21337890625,-1.361083984375,-6.40106201171875,-4.9591064453125,-2.52532958984375,10.107421875,-9.521484375,-58.447265625
19.705515146255493,1680680793.8415854,-0.038330078125,-0.036865234375,-0.962158203125,-6.12640380859375,9.19342041015625,-4.32586669921875,9.375,-5.2734375,-60.64453125
19.755515575408936,1680680793.8915858,0.320556640625,0.016845703125,-1.000732421875,3.50189208984375,-0.83160400390625,-6.14166259765625,9.08203125,-9.08203125,-68.5546875
19.805516958236694,1680680793.9415872,0.080078125,-0.227294921875,-0.136474609375,-2.64739990234375,11.444091796875,-1.52587890625,9.9609375,-0.87890625,-52.734375
19.85551691055298,1680680793.9915872,0.04638671875,0.09130859375,-1.676513671875,0.152587890625,-15.6402587890625,1.59454345703125,10.83984375,-14.35546875,-55.95703125
19.905518293380737,1680680794.0415885,-0.07470703125,0.067138671875,-1.072021484375,0.26702880859375,-6.8511962890625,-2.5787353515625,8.642578125,-3.369140625,-78.369140625
19.95551872253418,1680680794.091589,0.0224609375,-0.002197265625,-1.277099609375,-13.275146484375,21.1334228515625,2.32696533203125,8.935546875,-6.005859375,-61.376953125
20.005520343780518,1680680794.1415906,0.392578125,0.1240234375,-1.539306640625,2.75421142578125,-7.781982421875,6.805419921875,9.814453125,-10.986328125,-61.376953125
20.055521249771118,1680680794.1915915,0.044189453125,0.4345703125,-0.92919921875,4.8370361328125,21.5606689453125,-1.861572265625,7.763671875,-1.318359375,-87.744140625
20.10552191734314,1680680794.2415922,0.173583984375,-0.033447265625,-1.72607421875,-11.68060302734375,-9.9334716796875,-0.54931640625,9.08203125,2.9296875,-57.12890625
20.155522346496582,1680680794.2915926,-0.095703125,0.091796875,-0.8515625,3.23486328125,7.2021484375,4.730224609375,11.572265625,-8.935546875,-51.123046875
20.205522775650024,1680680794.341593,0.07470703125,0.0234375,-0.612060546875,10.97869873046875,17.63153076171875,3.70025634765625,10.107421875,-7.763671875,-63.427734375
20.255524158477783,1680680794.3915944,-0.129638671875,-0.007080078125,-0.15380859375,1.89208984375,-11.566162109375,3.2196044921875,10.546875,-9.375,-61.23046875
20.305524349212646,1680680794.4415946,-0.306640625,0.412841796875,-0.80419921875,3.89862060546875,6.500244140625,9.72747802734375,8.49609375,2.9296875,-65.33203125
20.35552477836609,1680680794.491595,-0.01708984375,0.37548828125,-0.852783203125,6.40869140625,13.97705078125,7.07244873046875,9.9609375,-10.546875,-50.390625
20.40552568435669,1680680794.541596,0.322998046875,0.2314453125,-1.202880859375,2.3956298828125,-14.70184326171875,4.7149658203125,8.349609375,-13.330078125,-74.853515625
20.45552659034729,1680680794.5915968,-0.34423828125,0.218994140625,-1.457763671875,-4.1046142578125,4.95147705078125,3.4027099609375,9.66796875,-2.34375,-62.109375
20.505526781082153,1680680794.641597,-0.06005859375,-0.14892578125,-1.12158203125,6.03485107421875,22.5372314453125,0.457763671875,10.107421875,-8.349609375,-61.669921875
20.55552840232849,1680680794.6915987,0.17041015625,0.12646484375,-0.9091796875,-14.30511474609375,-1.708984375,-5.615234375,7.32421875,-8.203125,-86.71875
20.60552954673767,1680680794.7415998,0.30859375,-0.065185546875,-1.252197265625,-0.30517578125,3.85284423828125,-0.51116943359375,11.1328125,4.39453125,-58.88671875
20.65553116798401,1680680794.7916014,0.204833984375,-0.0576171875,-1.152099609375,-5.0201416015625,-6.84356689453125,-6.3018798828125,12.01171875,-9.66796875,-53.3203125
20.705532550811768,1680680794.8416028,0.251220703125,-0.14501953125,-1.569580078125,-14.923095703125,-11.71875,-0.98419189453125,8.642578125,-7.177734375,-61.962890625
20.75553321838379,1680680794.8916035,-0.190673828125,0.146484375,-0.82177734375,5.86700439453125,-5.24139404296875,6.34002685546875,9.228515625,-9.228515625,-65.478515625
20.805533170700073,1680680794.9416034,-0.290283203125,-0.088134765625,-0.768310546875,-1.54876708984375,6.70623779296875,7.91168212890625,10.400390625,2.783203125,-56.103515625
20.85553479194641,1680680794.991605,-0.18359375,0.253173828125,-0.6552734375,-6.11114501953125,16.754150390625,3.3111572265625,10.986328125,-11.279296875,-52.294921875
20.90553593635559,1680680795.0416062,0.26220703125,0.06298828125,-0.702880859375,-1.8463134765625,7.16400146484375,3.41033935546875,8.49609375,-10.83984375,-76.7578125
20.955536127090454,1680680795.0916064,0.45556640625,0.17431640625,-1.230224609375,-0.58746337890625,-16.36505126953125,3.0670166015625,11.42578125,-4.98046875,-61.5234375
21.005537271499634,1680680795.1416075,-0.133056640625,0.206298828125,-0.662353515625,12.63427734375,13.42010498046875,5.584716796875,9.228515625,-9.521484375,-61.962890625
21.055538654327393,1680680795.191609,0.430419921875,-0.15234375,-0.7353515625,-1.1749267578125,6.75201416015625,4.9896240234375,7.177734375,-0.146484375,-88.916015625
21.10554003715515,1680680795.2416103,0.41455078125,-0.23291015625,-0.853271484375,-3.62396240234375,-30.94482421875,2.47955322265625,11.572265625,3.955078125,-54.345703125
21.15554118156433,1680680795.2916114,-0.093994140625,-0.211669921875,0.09765625,-8.73565673828125,22.63641357421875,8.39996337890625,10.107421875,-9.814453125,-57.568359375
21.20554232597351,1680680795.3416126,0.21728515625,-0.096923828125,-0.638427734375,-8.55255126953125,-3.95965576171875,6.79779052734375,8.642578125,-4.541015625,-62.255859375
21.255542516708374,1680680795.3916128,-0.2060546875,0.090087890625,-1.274169921875,-20.111083984375,19.2718505859375,3.570556640625,7.91015625,-4.1015625,-72.36328125
21.305542469024658,1680680795.4416127,-0.4580078125,0.177978515625,-0.93994140625,8.24737548828125,59.38720703125,6.05010986328125,11.279296875,-4.248046875,-48.193359375
21.35554313659668,1680680795.4916134,-1.123291015625,-0.031494140625,-0.992431640625,4.852294921875,97.3663330078125,-0.5645751953125,9.08203125,-16.40625,-62.40234375
21.40554404258728,1680680795.5416143,-0.8427734375,-0.232177734375,-1.55322265625,4.6539306640625,-16.53289794921875,-8.60595703125,9.814453125,-0.732421875,-62.841796875
21.45554494857788,1680680795.5916152,0.08740234375,-0.298095703125,-1.78125,-3.0364990234375,2.87628173828125,-6.561279296875,9.228515625,-8.349609375,-61.083984375
21.505545377731323,1680680795.6416156,0.637451171875,0.053466796875,-1.82763671875,11.8560791015625,-29.632568359375,-0.54168701171875,7.03125,-8.49609375,-84.9609375
21.555546760559082,1680680795.691617,-0.136474609375,0.497802734375,0.859375,4.67681884765625,9.75799560546875,2.0751953125,10.107421875,7.470703125,-67.236328125
21.605547666549683,1680680795.741618,-0.4970703125,0.14697265625,1.337158203125,5.06591796875,-17.89093017578125,2.62451171875,11.572265625,-6.298828125,-49.365234375
21.655547618865967,1680680795.7916179,-0.15869140625,-0.21923828125,0.955322265625,-26.00860595703125,66.58935546875,3.7078857421875,11.572265625,-6.884765625,-62.548828125
21.70554780960083,1680680795.841618,0.340087890625,0.657958984375,2.0,11.71112060546875,-26.23748779296875,-3.41796875,10.693359375,-8.935546875,-61.083984375
21.75554871559143,1680680795.891619,-0.04833984375,-0.195556640625,-1.113525390625,16.2811279296875,-16.19720458984375,5.523681640625,9.375,2.9296875,-62.6953125
21.80554962158203,1680680795.9416199,-0.438720703125,0.387451171875,-0.515625,30.792236328125,33.416748046875,-1.25885009765625,11.279296875,-12.158203125,-52.001953125
21.85555124282837,1680680795.9916215,0.777587890625,0.207275390625,-1.543701171875,9.765625,-30.22003173828125,19.2718505859375,9.08203125,-7.03125,-79.1015625
21.905553102493286,1680680796.0416234,-0.044921875,-0.0576171875,-0.718505859375,-4.73785400390625,8.24737548828125,22.34649658203125,10.986328125,-4.833984375,-61.669921875
21.955554008483887,1680680796.0916243,0.1884765625,-0.4775390625,-0.865478515625,-27.52685546875,2.197265625,19.95086669921875,10.400390625,-11.572265625,-64.013671875
22.005555152893066,1680680796.1416254,0.38720703125,0.154541015625,-1.7744140625,-3.6773681640625,-41.351318359375,26.6876220703125,9.521484375,7.763671875,-81.298828125
22.05555558204651,1680680796.1916258,-0.21435546875,-0.02734375,-0.925048828125,-9.57489013671875,16.24298095703125,22.19390869140625,10.986328125,-1.318359375,-51.123046875
22.105556964874268,1680680796.2416272,-0.19287109375,0.383056640625,-1.170654296875,-1.068115234375,5.89752197265625,8.6669921875,9.375,-6.73828125,-60.64453125
22.15555763244629,1680680796.291628,-0.111328125,0.078369140625,-1.17236328125,-2.99072265625,-13.75579833984375,2.44903564453125,8.203125,-5.859375,-60.64453125
22.205557823181152,1680680796.341628,0.17724609375,0.43896484375,-1.252197265625,-10.70404052734375,-19.03533935546875,-5.11932373046875,6.15234375,0.87890625,-69.140625
22.25555968284607,1680680796.39163,0.170166015625,-0.275146484375,-0.833984375,5.828857421875,43.98345947265625,-4.03594970703125,10.25390625,-3.22265625,-48.046875
22.30556082725525,1680680796.441631,-0.19873046875,-0.27783203125,0.26220703125,-4.99725341796875,37.49847412109375,-12.84027099609375,8.7890625,-14.0625,-65.33203125
22.355561017990112,1680680796.4916313,0.16943359375,-0.1171875,-1.5478515625,-14.70184326171875,-14.5416259765625,-7.080078125,10.25390625,-0.87890625,-60.9375
22.405560970306396,1680680796.5416312,0.374755859375,0.3505859375,-1.834228515625,17.66204833984375,-6.87408447265625,0.67901611328125,10.546875,-8.203125,-62.40234375
22.455562591552734,1680680796.5916328,-0.279296875,0.565673828125,-1.00634765625,40.1458740234375,12.2528076171875,4.94384765625,6.73828125,-1.171875,-88.4765625
22.50556254386902,1680680796.6416328,-0.176025390625,-0.33203125,-1.397216796875,-30.7769775390625,-4.08935546875,6.40106201171875,10.25390625,3.80859375,-54.78515625
22.55556321144104,1680680796.6916335,0.23779296875,-0.00048828125,-1.571044921875,-2.5177001953125,-18.035888671875,3.7841796875,9.9609375,-9.08203125,-57.71484375
22.60556411743164,1680680796.7416344,0.074951171875,-0.27001953125,-0.42724609375,-6.8511962890625,20.25604248046875,3.9215087890625,8.203125,-4.6875,-60.64453125
22.65556573867798,1680680796.791636,0.143310546875,0.28857421875,-1.455078125,8.50677490234375,-7.95745849609375,1.373291015625,7.32421875,-3.22265625,-71.77734375
22.705567359924316,1680680796.8416376,0.05078125,0.006591796875,-0.96630859375,-8.85772705078125,10.6658935546875,0.8087158203125,10.400390625,-4.541015625,-49.072265625
22.75556778907776,1680680796.891638,0.0166015625,-0.37353515625,-0.468994140625,-6.53076171875,5.1422119140625,8.880615234375,8.935546875,-13.916015625,-64.599609375
22.805567741394043,1680680796.941638,0.61083984375,-0.216064453125,-1.685302734375,-3.62396240234375,-15.72418212890625,9.1552734375,8.7890625,1.46484375,-62.98828125
22.8555691242218,1680680796.9916394,0.0537109375,0.536376953125,-1.169921875,11.68060302734375,1.9073486328125,9.89532470703125,8.056640625,-6.884765625,-60.205078125
22.905569076538086,1680680797.0416393,0.448974609375,0.20703125,-1.984619140625,17.974853515625,-32.196044921875,4.852294921875,6.591796875,-11.572265625,-77.783203125
22.95556926727295,1680680797.0916395,0.115478515625,-0.0078125,-1.627685546875,-9.17816162109375,-11.0931396484375,4.05120849609375,8.203125,8.203125,-66.2109375
23.005570650100708,1680680797.141641,-0.18017578125,0.359375,-0.90771484375,2.34222412109375,17.15087890625,0.9765625,10.25390625,-5.56640625,-50.9765625
23.05557107925415,1680680797.1916413,0.233642578125,-0.017822265625,-0.469970703125,-13.36669921875,8.8958740234375,-4.03594970703125,8.203125,-4.1015625,-62.109375
23.10557246208191,1680680797.2416427,0.77490234375,0.125,-1.75146484375,10.6658935546875,-8.87298583984375,-7.25555419921875,10.107421875,-8.056640625,-63.427734375
23.155572414398193,1680680797.2916427,-0.1796875,0.05517578125,-0.830078125,7.659912109375,29.083251953125,-5.57708740234375,8.349609375,2.783203125,-54.345703125
23.205573797225952,1680680797.341644,0.482421875,-0.30322265625,-1.51611328125,-7.49969482421875,-20.04241943359375,0.49591064453125,8.7890625,-13.4765625,-55.95703125
23.255574703216553,1680680797.391645,-0.075439453125,0.14404296875,-0.380859375,-5.2032470703125,16.41845703125,3.8604736328125,8.642578125,1.318359375,-70.166015625
23.305574655532837,1680680797.441645,-0.2822265625,0.165283203125,2.0,-0.9918212890625,-24.4903564453125,9.33837890625,9.08203125,-5.859375,-61.81640625
23.355575799942017,1680680797.491646,-0.135498046875,0.0712890625,-0.721435546875,-5.4931640625,22.2625732421875,9.5062255859375,7.32421875,-10.25390625,-80.859375
23.405576705932617,1680680797.541647,0.291748046875,0.1279296875,-0.347900390625,3.53240966796875,10.9405517578125,9.5367431640625,9.9609375,6.4453125,-62.40234375
23.455578088760376,1680680797.5916483,0.1884765625,0.225830078125,-1.65771484375,-2.26593017578125,-23.73504638671875,6.47735595703125,9.66796875,-8.7890625,-52.1484375
23.505578756332397,1680680797.641649,-0.149169921875,-0.0888671875,-0.309326171875,3.6773681640625,49.55291748046875,2.76947021484375,10.400390625,-4.541015625,-61.669921875
23.55557870864868,1680680797.691649,0.718017578125,0.410400390625,-1.60498046875,-1.89971923828125,-19.500732421875,1.89971923828125,8.203125,-7.32421875,-66.50390625
23.605578660964966,1680680797.741649,0.484130859375,0.131591796875,-1.17529296875,2.43377685546875,-8.453369140625,1.28936767578125,9.9609375,4.39453125,-56.8359375
23.655579805374146,1680680797.79165,-0.661865234375,-0.621337890625,-0.23974609375,-17.51708984375,14.068603515625,4.1961669921875,9.66796875,-12.890625,-55.078125
23.705581188201904,1680680797.8416514,-0.646728515625,-0.082275390625,-1.669921875,-5.54656982421875,10.1318359375,-0.9918212890625,8.642578125,2.197265625,-71.630859375
23.755581617355347,1680680797.8916519,-0.37255859375,0.693359375,0.0966796875,18.768310546875,-7.92694091796875,3.24249267578125,10.107421875,-3.955078125,-61.376953125
23.80558204650879,1680680797.9416523,0.30419921875,-0.34912109375,-0.803955078125,-5.67626953125,-22.4609375,10.1165771484375,9.228515625,-11.865234375,-74.267578125
23.85558271408081,1680680797.991653,0.138916015625,-0.057861328125,-1.59814453125,-4.76837158203125,9.58251953125,6.3934326171875,9.521484375,8.935546875,-64.892578125
23.90558385848999,1680680798.041654,1.558349609375,0.030029296875,2.0,20.74432373046875,-69.87762451171875,12.8021240234375,11.572265625,-7.177734375,-49.951171875
23.955584287643433,1680680798.0916545,-0.338623046875,0.427490234375,-0.694091796875,19.92034912109375,14.2669677734375,8.6212158203125,10.693359375,-4.248046875,-61.376953125
24.005585193634033,1680680798.1416554,-0.351806640625,-0.109130859375,-0.97802734375,-2.6092529296875,-12.603759765625,2.96783447265625,8.7890625,-7.03125,-67.67578125
24.055585145950317,1680680798.1916554,-0.316162109375,0.573974609375,-0.455078125,24.63531494140625,-42.68646240234375,1.01470947265625,12.01171875,0.87890625,-49.8046875
24.105586290359497,1680680798.2416565,0.45556640625,-0.2822265625,2.0,-11.77978515625,-34.85107421875,5.5084228515625,10.986328125,-13.037109375,-57.275390625
24.15558624267578,1680680798.2916565,0.072509765625,-0.243896484375,-0.4521484375,-1.80816650390625,14.22882080078125,3.36456298828125,10.400390625,2.783203125,-66.064453125
24.205586433410645,1680680798.3416567,-0.31005859375,0.207275390625,-0.8544921875,14.97650146484375,-20.416259765625,7.232666015625,9.66796875,-3.80859375,-58.88671875
24.25558638572693,1680680798.3916566,0.04248046875,0.466796875,-1.5302734375,25.2685546875,18.54705810546875,6.59942626953125,7.6171875,-6.73828125,-80.859375
24.305587768554688,1680680798.441658,0.14990234375,-0.06787109375,-0.483642578125,30.12847900390625,-12.79449462890625,11.87896728515625,10.986328125,9.228515625,-63.427734375
24.355589151382446,1680680798.4916594,-0.80859375,-0.82763671875,1.817626953125,-16.4031982421875,88.6383056640625,5.859375,10.83984375,-7.6171875,-50.68359375
24.405590534210205,1680680798.5416608,-0.138916015625,-0.113525390625,1.054931640625,-6.14166259765625,82.92388916015625,5.11932373046875,10.83984375,-4.6875,-60.64453125
24.455591917037964,1680680798.5916622,0.8203125,-0.00390625,2.0,4.7760009765625,-34.820556640625,11.52801513671875,9.375,-4.1015625,-68.5546875
24.505591869354248,1680680798.6416621,0.47119140625,-0.123779296875,-1.595947265625,-14.7857666015625,-24.62005615234375,8.85772705078125,10.400390625,2.783203125,-49.365234375
24.55559277534485,1680680798.691663,-0.1669921875,-0.102294921875,-1.915283203125,-7.1868896484375,6.9580078125,6.61468505859375,8.49609375,-12.01171875,-59.765625
24.60559344291687,1680680798.7416637,-0.198486328125,-0.091552734375,-0.07958984375,0.35858154296875,26.92413330078125,4.425048828125,9.08203125,4.1015625,-64.16015625
24.655593395233154,1680680798.7916636,1.98828125,0.544921875,2.0,11.41357421875,-82.550048828125,2.655029296875,8.7890625,-4.1015625,-60.64453125
24.705593824386597,1680680798.841664,1.29052734375,0.474609375,2.0,39.39056396484375,-53.5430908203125,7.92694091796875,5.2734375,-4.1015625,-86.42578125
24.755595445632935,1680680798.8916657,-0.82080078125,0.08447265625,-0.179931640625,-0.7171630859375,52.02484130859375,4.638671875,8.49609375,6.15234375,-57.12890625
24.805596113204956,1680680798.9416664,0.143798828125,-0.324951171875,-1.35205078125,-27.56500244140625,-2.84576416015625,9.70458984375,8.642578125,-6.884765625,-55.810546875
24.8555965423584,1680680798.9916668,0.330810546875,0.037353515625,-0.9306640625,-2.28118896484375,9.88006591796875,8.58306884765625,7.6171875,-3.80859375,-61.5234375
24.905598402023315,1680680799.0416687,0.313232421875,0.038818359375,-1.564697265625,-18.402099609375,-4.9896240234375,8.56781005859375,6.005859375,-1.904296875,-71.923828125
24.955599546432495,1680680799.0916698,-0.614013671875,0.18359375,-1.56884765625,-9.68170166015625,19.989013671875,-0.20599365234375,7.91015625,-2.05078125,-48.33984375
25.005599975585938,1680680799.1416702,-0.470703125,-0.630615234375,-0.137939453125,-28.73992919921875,-1.45721435546875,-5.889892578125,7.470703125,-12.744140625,-59.033203125
25.05559992790222,1680680799.1916702,0.2021484375,0.162841796875,-1.19921875,5.584716796875,-0.90789794921875,-3.77655029296875,7.32421875,2.34375,-67.96875
25.105600595474243,1680680799.2416708,-0.251220703125,0.033935546875,-0.44921875,0.8087158203125,6.439208984375,-0.5645751953125,8.056640625,-3.955078125,-61.376953125
25.155600786209106,1680680799.291671,-0.3916015625,-0.30322265625,-1.05078125,-9.54437255859375,6.2255859375,-1.93023681640625,5.56640625,-8.49609375,-83.7890625
25.205601692199707,1680680799.341672,-0.40087890625,-0.26220703125,-1.440673828125,3.76129150390625,9.04083251953125,6.85882568359375,8.056640625,6.884765625,-60.498046875
25.255602598190308,1680680799.3916728,0.0283203125,0.330078125,-1.421875,-2.05230712890625,-10.6048583984375,1.83868408203125,9.228515625,-6.884765625,-54.638671875
25.30560302734375,1680680799.4416733,0.12255859375,0.2060546875,-0.427001953125,7.4920654296875,-4.791259765625,2.60162353515625,6.591796875,-3.955078125,-61.962890625
25.355604648590088,1680680799.491675,0.1494140625,0.08740234375,-1.547119140625,2.44903564453125,-10.39886474609375,4.89044189453125,4.833984375,-5.419921875,-68.115234375
25.40560555458069,1680680799.5416758,0.203369140625,-0.168212890625,-1.014892578125,-13.5498046875,-4.31060791015625,6.46209716796875,8.203125,2.05078125,-51.26953125
25.45560598373413,1680680799.5916762,0.262939453125,-0.0703125,-1.989501953125,-4.55474853515625,-20.37811279296875,5.43975830078125,7.177734375,-10.986328125,-56.982421875
25.50560736656189,1680680799.6416776,-0.06005859375,0.4453125,-1.69873046875,17.364501953125,-2.685546875,0.1373291015625,6.005859375,2.783203125,-70.751953125
25.555607557296753,1680680799.6916778,-0.3525390625,-0.456787109375,-0.81640625,-32.20367431640625,16.998291015625,0.64849853515625,7.6171875,-4.1015625,-61.5234375
25.605607986450195,1680680799.7416782,-0.150390625,0.398193359375,-1.45458984375,13.77105712890625,-16.73126220703125,-1.64031982421875,6.15234375,-11.42578125,-72.94921875
25.655608892440796,1680680799.7916791,-0.06396484375,0.16064453125,-1.11962890625,15.350341796875,4.64630126953125,5.65338134765625,7.03125,10.83984375,-66.50390625
25.70560932159424,1680680799.8416796,-0.281982421875,-0.3779296875,2.0,-17.9901123046875,-37.0941162109375,-2.61688232421875,7.6171875,-2.05078125,-48.046875
25.75560975074768,1680680799.89168,-0.40625,-0.1669921875,-1.646240234375,-7.7056884765625,-4.791259765625,0.274658203125,6.591796875,-5.419921875,-59.912109375
25.805609941482544,1680680799.9416802,-0.3359375,0.3388671875,-0.333251953125,10.44464111328125,9.36126708984375,0.96893310546875,6.4453125,-3.80859375,-58.88671875
25.855610370635986,1680680799.9916806,0.3125,0.35107421875,-0.894287109375,15.2587890625,-23.13232421875,-5.16510009765625,6.298828125,1.611328125,-70.751953125
25.905611991882324,1680680800.0416822,-0.28271484375,-0.217041015625,-0.260498046875,1.4190673828125,25.64239501953125,-7.25555419921875,8.642578125,-5.419921875,-49.365234375
25.95561194419861,1680680800.0916822,0.548583984375,0.204345703125,-0.931884765625,9.68170166015625,-8.2550048828125,-3.875732421875,6.4453125,-12.3046875,-66.50390625
26.005613088607788,1680680800.1416833,-0.03515625,-0.071533203125,-0.812744140625,-5.157470703125,24.8565673828125,-1.6326904296875,7.32421875,0.0,-60.3515625
26.05561399459839,1680680800.1916842,0.0400390625,-0.017333984375,-0.562744140625,24.8260498046875,7.33184814453125,-3.82232666015625,7.763671875,-5.712890625,-59.912109375
26.10561442375183,1680680800.2416847,-0.03173828125,0.170654296875,-1.54052734375,-16.3421630859375,-7.40814208984375,2.00653076171875,4.833984375,-5.419921875,-85.400390625
26.155614852905273,1680680800.291685,-0.60986328125,-0.117919921875,0.58056640625,-3.73077392578125,47.72186279296875,2.3956298828125,8.056640625,6.884765625,-58.740234375
26.205616235733032,1680680800.3416865,0.64990234375,0.114013671875,-1.76123046875,3.15093994140625,-29.25872802734375,3.96728515625,9.66796875,-8.203125,-50.9765625
26.255617141723633,1680680800.3916874,-0.2587890625,0.472412109375,-0.9912109375,11.57379150390625,-5.63812255859375,1.7547607421875,7.03125,-4.98046875,-59.765625
26.305618286132812,1680680800.4416885,-0.0986328125,0.114990234375,-1.21923828125,2.40325927734375,1.38092041015625,2.17437744140625,8.7890625,-8.203125,-64.16015625
26.355618238449097,1680680800.4916885,0.465576171875,0.35498046875,-0.849609375,-1.8463134765625,7.75146484375,3.631591796875,7.6171875,4.39453125,-61.5234375
26.405619859695435,1680680800.54169,-0.37744140625,-0.3505859375,-1.218017578125,-8.9874267578125,-3.0670166015625,1.60980224609375,10.546875,-10.25390625,-50.68359375
26.455621242523193,1680680800.5916915,-0.10009765625,0.321533203125,-1.126708984375,7.8125,-12.5274658203125,1.6632080078125,7.6171875,-6.73828125,-75.29296875
26.505621671676636,1680680800.641692,0.299560546875,-0.12060546875,-1.15869140625,-4.94384765625,3.34930419921875,7.7667236328125,10.400390625,-2.490234375,-57.861328125
26.555623054504395,1680680800.6916933,0.183837890625,-0.104248046875,-1.093994140625,-2.37274169921875,-10.6048583984375,7.59124755859375,9.66796875,-5.2734375,-59.1796875
26.605623722076416,1680680800.741694,-0.20263671875,0.325927734375,-1.191650390625,18.829345703125,6.500244140625,5.68389892578125,8.49609375,-3.22265625,-84.9609375
26.65562415122986,1680680800.7916944,0.235107421875,0.25244140625,-0.9580078125,7.659912109375,-1.39617919921875,7.4462890625,11.1328125,7.03125,-57.421875
26.70562505722046,1680680800.8416953,0.28955078125,-0.191650390625,-0.770263671875,-15.41900634765625,-1.89971923828125,10.92529296875,9.9609375,-7.03125,-50.9765625
26.755625247955322,1680680800.8916955,0.28564453125,0.594482421875,-1.863525390625,0.87738037109375,-8.270263671875,11.34490966796875,9.814453125,-2.783203125,-60.205078125
26.805625438690186,1680680800.9416957,0.119140625,-0.09375,-1.58837890625,9.74273681640625,-14.1143798828125,12.53509521484375,8.49609375,-6.73828125,-63.8671875
26.855627059936523,1680680800.9916973,-0.34619140625,-0.00390625,-0.625732421875,-13.74053955078125,-4.03594970703125,5.4779052734375,8.935546875,6.884765625,-57.861328125
26.905627489089966,1680680801.0416977,-0.2177734375,-0.373779296875,-0.134033203125,-12.420654296875,29.74700927734375,3.42559814453125,9.375,-8.49609375,-49.8046875
26.955628395080566,1680680801.0916986,0.382080078125,0.209228515625,-1.2763671875,-11.0931396484375,-17.82989501953125,-2.20489501953125,6.298828125,-7.470703125,-74.560546875
27.005629062652588,1680680801.1416993,0.310791015625,0.110595703125,-1.545654296875,1.28173828125,5.63812255859375,-2.0751953125,7.177734375,0.439453125,-58.447265625
27.055629014968872,1680680801.1916993,0.1123046875,0.112060546875,-0.964599609375,-3.5858154296875,0.06103515625,-3.265380859375,8.056640625,-3.076171875,-61.083984375
27.105628967285156,1680680801.2416992,-0.07080078125,-0.146728515625,-1.149169921875,-10.78033447265625,-13.1988525390625,-0.5035400390625,5.712890625,-8.056640625,-80.419921875
27.155630111694336,1680680801.2917004,-0.297119140625,0.42919921875,-1.6337890625,6.561279296875,4.50897216796875,-6.27899169921875,6.73828125,11.42578125,-66.796875
27.20563006401062,1680680801.3417003,0.086669921875,-0.00830078125,-0.737548828125,-8.33892822265625,-11.26861572265625,-10.4217529296875,8.642578125,-1.318359375,-50.830078125
27.25563097000122,1680680801.3917012,0.1689453125,-0.040771484375,-0.252197265625,3.2196044921875,22.8424072265625,-7.8125,6.591796875,-7.177734375,-59.912109375
27.305631160736084,1680680801.4417014,-0.036376953125,-0.12158203125,-0.728759765625,-8.59832763671875,0.3814697265625,-11.3677978515625,6.4453125,-2.63671875,-60.64453125
27.355632305145264,1680680801.4917026,-0.361572265625,-0.351318359375,-0.7470703125,-0.17547607421875,13.9617919921875,-5.77545166015625,5.419921875,1.318359375,-72.802734375
27.405632495880127,1680680801.5417027,-0.046630859375,0.127197265625,-1.342041015625,1.96075439453125,-18.16558837890625,-2.899169921875,7.763671875,-0.732421875,-48.486328125
27.455633878707886,1680680801.5917041,-0.258056640625,-0.3779296875,-0.54443359375,-20.72906494140625,28.37371826171875,-1.3885498046875,6.298828125,-12.158203125,-59.033203125
27.505635023117065,1680680801.6417053,0.16015625,0.0185546875,-1.339111328125,-6.439208984375,-8.91876220703125,-1.76239013671875,6.15234375,2.63671875,-72.94921875
27.555635929107666,1680680801.6917062,-0.052490234375,-0.228271484375,-1.50537109375,-6.317138671875,2.37274169921875,-3.07464599609375,6.15234375,-3.515625,-62.6953125
27.605637311935425,1680680801.7417076,0.1064453125,-0.23486328125,-1.464111328125,3.021240234375,-2.76947021484375,-2.35748291015625,7.32421875,-10.83984375,-64.453125
27.655638217926025,1680680801.7917085,-0.16845703125,-0.138916015625,-1.409423828125,-3.13568115234375,-4.9896240234375,0.43487548828125,4.1015625,7.6171875,-84.9609375
27.70563840866089,1680680801.8417087,-0.0439453125,-0.00732421875,-1.37158203125,0.02288818359375,-3.4637451171875,1.94549560546875,7.763671875,4.541015625,-54.638671875
27.755639791488647,1680680801.89171,0.09423828125,-0.06103515625,-0.72607421875,-5.92803955078125,-1.3275146484375,-1.2969970703125,8.056640625,-6.884765625,-52.294921875
27.80563998222351,1680680801.9417102,0.09716796875,0.110107421875,-1.0634765625,1.77764892578125,4.90570068359375,-1.2359619140625,7.32421875,-4.6875,-62.98828125
27.85564160346985,1680680801.9917119,0.068359375,0.094970703125,-0.5830078125,8.00323486328125,7.7972412109375,-3.63922119140625,6.884765625,-5.712890625,-61.083984375
27.90564227104187,1680680802.0417125,0.03515625,0.044189453125,-0.97021484375,3.1280517578125,4.7607421875,-0.5950927734375,6.884765625,3.662109375,-71.630859375
27.95564317703247,1680680802.0917134,-0.153564453125,-0.05908203125,-1.12841796875,1.7852783203125,4.02069091796875,-2.288818359375,8.49609375,-4.1015625,-49.51171875
28.005643844604492,1680680802.141714,-0.220458984375,-0.10595703125,-1.24169921875,-9.979248046875,1.33514404296875,-1.21307373046875,7.03125,-13.18359375,-61.81640625
28.055644989013672,1680680802.1917152,0.00341796875,0.00537109375,-0.917724609375,7.1258544921875,-10.79559326171875,-1.800537109375,5.859375,2.63671875,-74.12109375
28.10564613342285,1680680802.2417164,-0.025390625,0.025634765625,-1.181640625,-0.1678466796875,0.457763671875,-2.73895263671875,6.884765625,-2.490234375,-63.720703125
28.155646800994873,1680680802.291717,-0.11572265625,-0.297607421875,-1.264892578125,-0.213623046875,-2.2735595703125,0.5950927734375,6.591796875,-7.470703125,-63.427734375
28.205646991729736,1680680802.3417172,-0.08349609375,-0.17236328125,-0.804931640625,-10.55908203125,3.72314453125,0.732421875,5.126953125,-1.025390625,-89.208984375
28.25564694404602,1680680802.3917172,0.07275390625,-0.24072265625,-0.96240234375,1.2054443359375,-0.20599365234375,1.25885009765625,7.470703125,8.056640625,-61.669921875
28.305647134780884,1680680802.4417174,-0.033935546875,0.091796875,-0.891845703125,-4.638671875,-0.40435791015625,2.3040771484375,9.375,-4.98046875,-50.390625
28.355647325515747,1680680802.4917176,0.06640625,-0.17041015625,-1.24609375,-8.0718994140625,-6.12640380859375,7.69805908203125,6.298828125,-4.833984375,-61.962890625
28.405648708343506,1680680802.541719,-0.234375,-0.035400390625,-0.54345703125,-6.50787353515625,8.5601806640625,2.4566650390625,6.884765625,-3.955078125,-61.669921875
28.45564889907837,1680680802.5917192,0.01953125,0.075927734375,-1.105712890625,0.80108642578125,2.3040771484375,3.143310546875,7.03125,-5.2734375,-71.19140625
28.50564980506897,1680680802.64172,0.117431640625,0.087890625,-1.00244140625,3.265380859375,-9.23919677734375,1.2054443359375,7.6171875,5.2734375,-57.71484375
28.55565118789673,1680680802.6917214,-0.1455078125,0.136474609375,-0.674072265625,-0.14495849609375,10.81085205078125,1.79290771484375,8.349609375,-8.349609375,-51.416015625
28.605651378631592,1680680802.7417216,0.509765625,0.167724609375,-1.12158203125,-1.91497802734375,-2.17437744140625,0.7171630859375,6.298828125,-10.107421875,-76.025390625
28.655652046203613,1680680802.7917223,-1.493896484375,0.087158203125,-0.784912109375,-1.861572265625,14.86968994140625,3.79180908203125,7.470703125,2.783203125,-63.720703125
28.705653190612793,1680680802.8417234,0.006591796875,-0.05322265625,-1.6533203125,6.0882568359375,6.53839111328125,1.251220703125,6.73828125,-2.9296875,-61.23046875
28.755654096603394,1680680802.8917243,-0.26904296875,0.08837890625,-0.659423828125,0.274658203125,6.96563720703125,4.06646728515625,8.642578125,-10.400390625,-71.337890625
28.805655241012573,1680680802.9417255,-0.28955078125,0.041015625,-0.83251953125,1.13677978515625,12.1917724609375,3.265380859375,6.005859375,9.228515625,-80.712890625
28.855655670166016,1680680802.991726,-0.09619140625,0.166259765625,-1.487548828125,2.73895263671875,-10.56671142578125,2.38800048828125,8.935546875,4.541015625,-54.638671875
28.905656099319458,1680680803.0417264,0.095458984375,-0.36962890625,-0.031005859375,-0.48828125,4.5623779296875,10.47515869140625,9.08203125,-6.73828125,-55.6640625
28.955657720565796,1680680803.091728,0.885009765625,0.20068359375,-1.844970703125,2.0904541015625,24.0936279296875,6.01959228515625,7.470703125,-3.076171875,-62.548828125
29.005658626556396,1680680803.1417289,0.33447265625,-0.627685546875,-1.47900390625,-2.349853515625,-13.09967041015625,7.66754150390625,6.005859375,-6.005859375,-60.791015625
29.055660486221313,1680680803.1917307,0.034423828125,-0.07275390625,-1.38525390625,3.33404541015625,2.14385986328125,5.9356689453125,6.591796875,4.541015625,-68.994140625
29.10566234588623,1680680803.2417326,-0.286376953125,0.385986328125,-0.811279296875,0.64849853515625,29.052734375,1.03759765625,8.203125,-0.29296875,-50.9765625
29.15566396713257,1680680803.2917342,-0.185302734375,-0.15380859375,-0.688720703125,-6.591796875,-1.40380859375,-2.13623046875,7.177734375,-10.400390625,-54.638671875
29.205663919448853,1680680803.3417342,0.170166015625,0.254150390625,-0.515625,9.48333740234375,12.6190185546875,-2.50244140625,5.712890625,-3.076171875,-78.662109375
29.255664825439453,1680680803.391735,0.220947265625,0.135986328125,-0.90185546875,16.33453369140625,-6.78253173828125,-1.94549560546875,7.177734375,0.439453125,-61.376953125
29.305664777755737,1680680803.441735,0.2685546875,0.049072265625,-0.7734375,-3.1585693359375,1.3427734375,-0.4730224609375,7.470703125,-3.369140625,-61.962890625
29.355666160583496,1680680803.4917364,-0.254638671875,0.096435546875,-1.295166015625,-1.922607421875,-7.843017578125,-1.97601318359375,6.005859375,-10.400390625,-75.146484375
29.40566635131836,1680680803.5417366,0.099609375,-0.015380859375,-0.74951171875,5.83648681640625,18.37158203125,2.25067138671875,6.884765625,9.814453125,-77.783203125
29.45566725730896,1680680803.5917375,0.018310546875,0.023681640625,-1.239990234375,-3.4637451171875,-12.48931884765625,0.518798828125,7.470703125,4.541015625,-52.587890625
29.50566864013672,1680680803.641739,-0.094482421875,0.01416015625,-0.8984375,9.27734375,-2.3956298828125,1.708984375,6.591796875,-6.298828125,-55.517578125
29.55566930770874,1680680803.6917396,0.063232421875,0.089111328125,-0.54833984375,-1.77001953125,4.02069091796875,3.6773681640625,7.177734375,-1.904296875,-62.841796875
29.6056706905365,1680680803.741741,-0.14501953125,-0.2392578125,-1.17724609375,-12.91656494140625,-13.1072998046875,2.62451171875,7.32421875,-4.1015625,-60.64453125
29.655670881271362,1680680803.7917411,-0.2880859375,0.231689453125,-1.285888671875,15.93780517578125,13.1988525390625,2.4566650390625,5.56640625,3.80859375,-71.77734375
29.7056725025177,1680680803.8417428,0.026123046875,-0.278564453125,-0.87744140625,-7.63702392578125,2.5482177734375,4.364013671875,7.470703125,-0.439453125,-49.658203125
29.755672931671143,1680680803.8917432,-0.06884765625,-0.026611328125,-0.967041015625,1.68609619140625,25.30670166015625,2.6092529296875,6.884765625,-9.521484375,-54.638671875
29.80567455291748,1680680803.9417448,0.26904296875,0.0,-1.1220703125,-2.2430419921875,7.14111328125,3.8604736328125,5.126953125,-3.955078125,-79.248046875
29.855674982070923,1680680803.9917452,0.0546875,0.21533203125,-1.0361328125,6.53839111328125,2.61688232421875,3.56292724609375,6.73828125,-0.87890625,-60.3515625
29.905674934387207,1680680804.0417452,0.010498046875,0.0224609375,-1.201171875,-1.70135498046875,8.636474609375,5.889892578125,7.03125,-3.80859375,-63.28125
29.95567536354065,1680680804.0917456,0.080810546875,-0.0595703125,-1.586669921875,-6.06536865234375,-15.15960693359375,4.57000732421875,5.859375,-9.9609375,-77.9296875
30.005676984786987,1680680804.1417472,0.014892578125,0.114990234375,-1.32861328125,0.5950927734375,8.49151611328125,7.6751708984375,6.73828125,11.1328125,-75.29296875
30.05567765235901,1680680804.191748,0.12646484375,0.224365234375,-1.61572265625,-3.48663330078125,-26.1077880859375,1.068115234375,7.03125,2.34375,-52.1484375
30.10567831993103,1680680804.2417486,-0.074951171875,0.13623046875,-0.646728515625,6.56890869140625,3.8604736328125,4.95147705078125,6.15234375,-7.91015625,-56.8359375
30.15567946434021,1680680804.2917497,-0.09521484375,-0.1181640625,-0.806396484375,-20.1263427734375,7.42340087890625,1.86920166015625,6.4453125,-3.22265625,-62.6953125
30.205681085586548,1680680804.3417513,0.18701171875,0.248046875,-1.380859375,8.209228515625,-17.7154541015625,-0.20599365234375,6.298828125,-4.833984375,-62.548828125
30.25568175315857,1680680804.391752,-0.0419921875,-0.2255859375,-1.404541015625,-9.6893310546875,3.4942626953125,-3.082275390625,4.833984375,3.369140625,-71.337890625
30.305683135986328,1680680804.4417534,-0.055419921875,0.06982421875,-1.218994140625,4.23431396484375,18.7530517578125,-2.90679931640625,8.642578125,-0.146484375,-49.072265625
30.355684995651245,1680680804.4917552,-0.11279296875,-0.276611328125,-0.70361328125,-5.0201416015625,0.7781982421875,-2.2125244140625,7.177734375,-10.986328125,-55.517578125
30.405685424804688,1680680804.5417557,0.041015625,0.275634765625,-1.209228515625,8.55255126953125,-1.21307373046875,-2.49481201171875,3.076171875,-0.732421875,-78.955078125
30.455686807632446,1680680804.591757,-0.05712890625,0.03271484375,-1.210205078125,9.368896484375,-6.03485107421875,-2.08282470703125,6.591796875,2.783203125,-60.498046875
30.505687952041626,1680680804.6417582,0.0498046875,0.110595703125,-1.35400390625,1.35040283203125,-17.09747314453125,-0.640869140625,6.591796875,-2.197265625,-62.841796875
30.555688619613647,1680680804.6917589,0.051513671875,0.15966796875,-1.330810546875,8.11767578125,5.1116943359375,-0.0457763671875,6.884765625,-10.400390625,-70.166015625
30.60568857192993,1680680804.7417588,-0.257568359375,-0.35107421875,-0.3291015625,-3.7384033203125,-0.05340576171875,1.21307373046875,5.56640625,9.375,-84.66796875
30.65568995475769,1680680804.7917602,-0.122314453125,0.22705078125,-1.047119140625,0.17547607421875,3.936767578125,-1.68609619140625,6.73828125,7.32421875,-55.078125
30.70569157600403,1680680804.8417618,0.4248046875,0.170166015625,-0.926025390625,4.50897216796875,-9.84954833984375,-0.03814697265625,8.203125,-5.56640625,-52.44140625
30.755692958831787,1680680804.8917632,0.124267578125,0.129638671875,-1.3447265625,11.20758056640625,9.34600830078125,-0.0762939453125,6.73828125,-3.22265625,-60.9375
30.80569314956665,1680680804.9417634,-0.17041015625,-0.034912109375,-1.39697265625,-4.4708251953125,4.75311279296875,0.732421875,7.03125,-2.9296875,-60.05859375
30.85569429397583,1680680804.9917645,0.171630859375,0.048583984375,-0.981689453125,3.12042236328125,-10.82611083984375,2.25067138671875,5.2734375,0.29296875,-73.828125
30.905696153640747,1680680805.0417664,0.07568359375,0.279541015625,-0.8515625,12.3443603515625,7.568359375,4.46319580078125,7.6171875,4.1015625,-52.1484375
30.95569658279419,1680680805.0917668,0.201171875,0.116943359375,-1.137939453125,1.2054443359375,-5.91278076171875,-3.8299560546875,8.056640625,-9.814453125,-54.931640625
31.00569772720337,1680680805.141768,-0.52685546875,-0.3896484375,-0.47265625,-6.15692138671875,20.8587646484375,1.18255615234375,5.126953125,-5.712890625,-77.490234375
31.05569815635681,1680680805.1917684,0.050048828125,0.130859375,-0.990234375,-2.96783447265625,-18.9361572265625,6.40106201171875,7.03125,0.5859375,-60.9375
31.10569977760315,1680680805.24177,0.1328125,0.33154296875,2.0,15.31219482421875,-9.0179443359375,11.20758056640625,5.419921875,-2.783203125,-61.083984375
31.155699968338013,1680680805.2917702,0.087158203125,0.32373046875,-1.179931640625,15.26641845703125,-4.20379638671875,4.974365234375,7.763671875,-9.814453125,-66.943359375
31.205699920654297,1680680805.3417702,-0.132568359375,-0.140380859375,-0.58056640625,-13.99993896484375,0.52642822265625,11.00921630859375,6.4453125,5.859375,-85.83984375
31.255700826644897,1680680805.391771,0.008056640625,0.203125,-1.105224609375,7.2174072265625,5.74493408203125,9.37652587890625,8.349609375,7.763671875,-57.861328125
31.30570149421692,1680680805.4417717,-0.232666015625,-0.43603515625,-0.61767578125,-23.98681640625,33.48541259765625,8.15582275390625,9.375,-4.98046875,-51.26953125
31.355701684951782,1680680805.491772,0.13427734375,-0.17431640625,-1.36767578125,-27.52685546875,-21.35467529296875,7.13348388671875,8.203125,-3.515625,-62.109375
31.405702829360962,1680680805.541773,0.296875,0.41748046875,-0.3447265625,10.65826416015625,8.81195068359375,5.157470703125,5.56640625,-3.22265625,-59.765625
31.4557044506073,1680680805.5917747,0.123046875,0.1201171875,-1.19921875,-23.81134033203125,3.0670166015625,3.51715087890625,5.126953125,-1.318359375,-73.095703125
31.505704879760742,1680680805.6417751,0.0615234375,-0.092041015625,-1.7490234375,-20.53070068359375,-7.80487060546875,0.37384033203125,5.712890625,3.955078125,-52.587890625
31.555705308914185,1680680805.6917756,-0.166259765625,0.183349609375,-1.2744140625,-15.4266357421875,-5.56182861328125,-0.244140625,4.248046875,-7.470703125,-54.052734375
31.605706691741943,1680680805.741777,0.5419921875,0.35498046875,-1.091552734375,-1.5106201171875,-5.27191162109375,-7.1258544921875,2.783203125,-6.591796875,-77.490234375
31.655707597732544,1680680805.7917778,0.147705078125,0.246826171875,-1.3232421875,-11.49749755859375,-3.16619873046875,-14.495849609375,5.419921875,3.662109375,-61.669921875
31.705708742141724,1680680805.841779,-0.007080078125,0.1572265625,-0.54345703125,10.20050048828125,-12.50457763671875,-21.6064453125,3.80859375,-2.63671875,-62.40234375
31.75571036338806,1680680805.8917806,0.110107421875,0.142333984375,-1.016845703125,2.83050537109375,-1.77764892578125,-21.12579345703125,3.955078125,-9.521484375,-70.166015625
31.805710315704346,1680680805.9417806,-0.088623046875,0.194091796875,-1.7099609375,16.6015625,0.0762939453125,-11.37542724609375,2.197265625,10.693359375,-83.056640625
31.855711936950684,1680680805.9917822,-0.12060546875,-0.130615234375,-1.597412109375,2.29644775390625,20.355224609375,-14.1143798828125,7.03125,8.7890625,-57.421875
31.905712127685547,1680680806.0417824,-0.17529296875,-0.41259765625,-1.14404296875,5.21087646484375,-3.41796875,-6.12640380859375,7.03125,-5.56640625,-51.5625
31.955713033676147,1680680806.0917833,0.217529296875,0.162353515625,-0.686767578125,4.730224609375,5.31768798828125,7.2021484375,5.859375,-3.80859375,-62.6953125
32.00571298599243,1680680806.1417832,0.183837890625,0.26416015625,-1.093505859375,3.5400390625,3.5858154296875,14.95361328125,5.712890625,-2.783203125,-60.791015625
32.05571460723877,1680680806.1917849,-0.101318359375,0.2021484375,-0.824951171875,14.50347900390625,14.2059326171875,17.82989501953125,6.4453125,-1.171875,-72.94921875
32.10571575164795,1680680806.241786,0.193603515625,0.109375,-1.5791015625,-4.486083984375,11.1846923828125,27.48870849609375,8.056640625,3.076171875,-53.173828125
32.15571570396423,1680680806.291786,-0.515869140625,0.188232421875,-0.447265625,8.29315185546875,1.800537109375,21.61407470703125,6.884765625,-9.521484375,-54.052734375
32.20571732521057,1680680806.3417876,-0.005126953125,-0.002197265625,-1.31640625,-8.4381103515625,7.74383544921875,32.3944091796875,5.2734375,-5.56640625,-79.1015625
32.25571870803833,1680680806.391789,0.29931640625,0.386474609375,-1.15478515625,-2.6092529296875,-15.2435302734375,19.6990966796875,6.73828125,1.7578125,-61.23046875
32.30572032928467,1680680806.4417906,-0.321533203125,-0.096435546875,-0.578369140625,-15.594482421875,0.1068115234375,11.43646240234375,5.126953125,-2.197265625,-62.255859375
32.35572028160095,1680680806.4917905,-0.049560546875,0.447998046875,-1.185791015625,-4.53948974609375,-0.02288818359375,1.48773193359375,3.955078125,-9.814453125,-72.509765625
32.405720949172974,1680680806.5417912,-0.2236328125,0.212890625,-1.47802734375,10.68115234375,4.43267822265625,-5.47027587890625,2.490234375,11.572265625,-80.419921875
32.45572090148926,1680680806.5917912,-0.1259765625,0.040283203125,-1.05712890625,-2.593994140625,-23.20098876953125,8.17108154296875,4.98046875,6.73828125,-54.19921875
32.50572180747986,1680680806.641792,-0.01220703125,-0.00146484375,-0.486083984375,0.35858154296875,-3.08990478515625,8.43048095703125,6.4453125,-2.05078125,-51.26953125
32.55572175979614,1680680806.691792,0.23095703125,0.265625,-0.610595703125,-16.21246337890625,0.06866455078125,0.8087158203125,4.1015625,-3.515625,-61.23046875
32.60572171211243,1680680806.741792,0.24462890625,0.455810546875,-1.6181640625,-1.40380859375,6.04248046875,-10.62774658203125,3.515625,-1.171875,-60.3515625
32.65572237968445,1680680806.7917926,-0.172607421875,0.561279296875,-1.0283203125,21.40045166015625,-4.6234130859375,-27.91595458984375,2.9296875,-2.05078125,-70.01953125
32.70572376251221,1680680806.841794,-0.626708984375,-0.4765625,-0.1513671875,-2.37274169921875,50.23193359375,-27.6336669921875,5.712890625,6.884765625,-55.224609375
32.75572466850281,1680680806.891795,-0.324951171875,-0.299560546875,-0.528076171875,-6.9122314453125,-0.152587890625,-32.2418212890625,5.56640625,-7.6171875,-53.61328125
32.80572557449341,1680680806.9417958,0.1884765625,0.327880859375,-1.896240234375,19.66094970703125,4.486083984375,-22.3388671875,4.1015625,-8.7890625,-72.36328125
32.85572552680969,1680680806.9917958,-0.341796875,-0.508056640625,-0.44921875,4.46319580078125,8.43048095703125,-11.0015869140625,7.32421875,2.63671875,-65.0390625
32.905726194381714,1680680807.0417964,0.0771484375,-0.13232421875,-1.18408203125,1.97601318359375,12.63427734375,-6.6986083984375,6.4453125,-2.05078125,-63.8671875
32.955727100372314,1680680807.0917974,0.356201171875,-0.02734375,-1.82666015625,-9.9029541015625,-5.218505859375,0.67901611328125,6.15234375,-10.83984375,-67.08984375
33.00572872161865,1680680807.141799,-0.3427734375,-0.046875,-1.5126953125,13.99993896484375,0.55694580078125,-4.43267822265625,4.833984375,8.642578125,-85.693359375
33.05572962760925,1680680807.1917999,0.3017578125,0.27587890625,-0.64697265625,10.5133056640625,10.36834716796875,-7.28607177734375,8.056640625,6.298828125,-56.396484375
33.10573101043701,1680680807.2418013,0.294677734375,-0.091796875,-0.7041015625,6.103515625,-6.3323974609375,-5.0506591796875,8.49609375,-5.56640625,-52.44140625
33.15573239326477,1680680807.2918026,0.239501953125,0.09130859375,-1.754638671875,13.5345458984375,-5.57708740234375,1.15203857421875,6.15234375,-2.9296875,-63.28125
33.205732345581055,1680680807.3418026,-0.323486328125,-0.1494140625,-0.8896484375,20.62225341796875,7.7972412109375,1.89971923828125,8.49609375,-3.80859375,-60.05859375
33.25579380989075,1680680807.391864,0.031494140625,-0.091796875,-0.75537109375,7.27081298828125,-3.57818603515625,10.6353759765625,7.177734375,-5.419921875,-72.216796875
33.30579495429993,1680680807.4418652,-0.05029296875,0.1982421875,-0.822509765625,-1.44195556640625,6.78253173828125,7.965087890625,7.470703125,6.591796875,-59.033203125
33.35579490661621,1680680807.4918652,0.052734375,0.12939453125,-0.40966796875,-7.78961181640625,9.21630859375,4.79888916015625,8.935546875,-7.177734375,-50.830078125
33.40579676628113,1680680807.541867,0.34033203125,0.19482421875,-1.620361328125,5.76019287109375,-11.5203857421875,6.622314453125,7.03125,-12.3046875,-67.96875
33.45579719543457,1680680807.5918674,-0.04345703125,0.0546875,-1.014892578125,14.312744140625,8.2244873046875,6.3934326171875,6.4453125,4.98046875,-70.01953125
33.50579810142517,1680680807.6418684,-0.214111328125,0.02197265625,-0.457275390625,0.8544921875,10.68115234375,11.29913330078125,6.298828125,-2.490234375,-61.962890625
33.55579924583435,1680680807.6918695,-0.286376953125,-0.181884765625,-0.755615234375,-5.8746337890625,23.07891845703125,5.65338134765625,7.470703125,-7.470703125,-63.720703125
33.60580086708069,1680680807.741871,0.176513671875,0.302490234375,-1.085205078125,13.03863525390625,-9.10186767578125,2.960205078125,5.859375,-1.46484375,-88.4765625
33.65580177307129,1680680807.791872,0.20849609375,-0.30078125,-0.873046875,-1.64031982421875,2.5482177734375,6.62994384765625,7.32421875,10.83984375,-64.453125
33.70580196380615,1680680807.8418722,0.14990234375,0.216064453125,-1.1396484375,-5.523681640625,-11.3067626953125,6.11114501953125,8.7890625,-1.171875,-50.09765625
33.75580286979675,1680680807.8918731,0.28662109375,-0.025634765625,-1.335205078125,12.1612548828125,21.4080810546875,5.82122802734375,7.6171875,-5.859375,-59.1796875
33.80580425262451,1680680807.9418745,0.285400390625,0.0810546875,-1.4521484375,-5.18798828125,-6.87408447265625,9.6435546875,7.470703125,-2.490234375,-61.083984375
33.85580539703369,1680680807.9918756,-0.5361328125,-0.295654296875,-0.573974609375,-16.41082763671875,28.6407470703125,2.08282470703125,6.15234375,-4.6875,-66.796875
33.905805349349976,1680680808.0418756,-0.31689453125,0.170166015625,-1.691162109375,0.2899169921875,2.37274169921875,7.080078125,6.73828125,6.15234375,-69.140625
33.95580530166626,1680680808.0918756,0.35302734375,-0.084228515625,-0.6875,0.16021728515625,-14.25933837890625,6.58416748046875,8.935546875,-2.783203125,-50.537109375
34.0058057308197,1680680808.141876,0.03759765625,-0.010009765625,-0.736572265625,1.5411376953125,-14.71710205078125,2.777099609375,8.056640625,-10.986328125,-56.982421875
34.055806398391724,1680680808.1918766,-0.040771484375,-0.031005859375,-0.4638671875,9.51385498046875,8.78143310546875,4.00543212890625,6.15234375,0.0,-79.1015625
34.105807304382324,1680680808.2418776,0.240966796875,0.146728515625,-0.767822265625,6.00433349609375,-12.65716552734375,12.04681396484375,8.203125,1.7578125,-60.64453125
34.155807971954346,1680680808.2918782,0.45751953125,0.3818359375,-1.448486328125,-3.11279296875,-10.26153564453125,19.3939208984375,6.298828125,-2.197265625,-61.669921875
34.20580792427063,1680680808.3418782,0.255615234375,0.235595703125,-1.424072265625,1.8768310546875,9.1094970703125,14.01519775390625,5.126953125,-8.056640625,-75.732421875
34.25580811500549,1680680808.3918784,0.224853515625,0.150390625,-0.656005859375,-4.00543212890625,0.92315673828125,14.22882080078125,4.39453125,12.890625,-78.22265625
34.305809020996094,1680680808.4418793,-0.35888671875,0.164306640625,-1.28955078125,-12.5579833984375,-14.9993896484375,6.622314453125,7.03125,5.56640625,-53.3203125
34.355809926986694,1680680808.4918802,-0.45703125,0.029052734375,-0.700439453125,-6.378173828125,31.59332275390625,-2.50244140625,6.005859375,-5.126953125,-54.931640625
34.40581154823303,1680680808.5418818,0.03271484375,-0.13818359375,-0.453369140625,-12.94708251953125,5.9967041015625,-5.9814453125,5.56640625,-2.34375,-61.81640625
34.455811738967896,1680680808.591882,0.2880859375,0.397216796875,-1.9501953125,-2.4261474609375,-19.58465576171875,-6.17218017578125,4.541015625,-3.662109375,-60.205078125
34.505812883377075,1680680808.6418831,-0.22265625,0.225341796875,-1.455810546875,25.38299560546875,21.30126953125,-5.42449951171875,3.955078125,3.369140625,-72.509765625
34.55581307411194,1680680808.6918833,0.108642578125,0.167724609375,-1.199462890625,10.92529296875,21.03424072265625,-4.50897216796875,6.15234375,2.63671875,-50.09765625
34.605814933776855,1680680808.7418852,-0.601806640625,0.34228515625,-0.580078125,9.59014892578125,8.91876220703125,-4.119873046875,6.15234375,-7.91015625,-52.44140625
34.6558153629303,1680680808.7918856,0.045654296875,0.112548828125,-1.39892578125,5.3558349609375,19.927978515625,1.27410888671875,5.126953125,-9.228515625,-73.095703125
34.70581603050232,1680680808.8418863,-0.13720703125,-0.142333984375,-0.674560546875,-13.02337646484375,2.40325927734375,-3.45611572265625,6.884765625,3.369140625,-66.064453125
34.75581765174866,1680680808.891888,-0.721435546875,-0.42236328125,0.4931640625,-14.54925537109375,-0.6103515625,-7.049560546875,7.470703125,-2.490234375,-63.134765625
34.8058180809021,1680680808.9418883,-0.122314453125,0.41455078125,-1.220458984375,18.86749267578125,19.989013671875,-7.3089599609375,4.98046875,-7.03125,-62.98828125
34.855818033218384,1680680808.9918883,-0.44482421875,-0.085693359375,-0.38525390625,1.74713134765625,11.02447509765625,-2.61688232421875,4.833984375,-4.541015625,-85.986328125
34.90581965446472,1680680809.04189,0.3759765625,0.107177734375,-1.02685546875,1.97601318359375,-2.46429443359375,-2.1209716796875,5.56640625,12.59765625,-70.01953125
34.95582103729248,1680680809.0918913,-0.75048828125,-0.009521484375,-1.203857421875,1.22833251953125,10.5438232421875,-1.2664794921875,8.49609375,4.1015625,-52.1484375
35.00582242012024,1680680809.1418927,-0.0166015625,-0.163330078125,-0.60400390625,3.387451171875,-6.29425048828125,0.06866455078125,7.32421875,-6.73828125,-54.4921875
35.05582284927368,1680680809.191893,-0.43701171875,0.330322265625,-0.496337890625,13.031005859375,19.17266845703125,-1.79290771484375,6.884765625,-4.833984375,-63.427734375
35.10582447052002,1680680809.2418947,-0.165771484375,-0.0361328125,-1.12548828125,1.15966796875,-0.93841552734375,-3.02886962890625,7.470703125,-2.197265625,-60.498046875
35.15582489967346,1680680809.2918952,-0.010498046875,0.04248046875,-1.3759765625,12.4969482421875,5.2032470703125,0.6103515625,5.859375,-5.56640625,-63.57421875
35.20582604408264,1680680809.3418963,-0.084228515625,-0.106201171875,-0.86865234375,0.23651123046875,-2.75421142578125,4.8980712890625,5.859375,3.515625,-71.19140625
35.255826473236084,1680680809.3918967,0.031005859375,0.130859375,-1.0390625,7.48443603515625,1.83868408203125,5.45501708984375,7.763671875,5.126953125,-55.224609375
35.305827140808105,1680680809.4418974,0.0859375,0.161865234375,-0.90087890625,13.36669921875,3.83758544921875,5.3253173828125,8.7890625,-4.6875,-50.9765625
35.35582900047302,1680680809.4918993,0.109375,0.125,-1.2353515625,3.8604736328125,-5.5084228515625,4.43267822265625,7.91015625,-11.71875,-59.1796875
35.405829191207886,1680680809.5418994,-0.275390625,-0.39794921875,-0.55126953125,-11.5814208984375,16.86859130859375,9.57489013671875,6.591796875,-2.490234375,-80.419921875
35.4558310508728,1680680809.5919013,0.158447265625,0.291015625,-1.16455078125,5.86700439453125,-2.79998779296875,19.2108154296875,8.056640625,3.076171875,-62.255859375
35.505831241607666,1680680809.6419015,0.10009765625,0.046142578125,-0.8623046875,0.2593994140625,5.1727294921875,22.9034423828125,8.203125,-0.87890625,-61.81640625
35.55583119392395,1680680809.6919014,0.150390625,0.13818359375,-1.01416015625,4.70733642578125,10.6964111328125,22.247314453125,7.763671875,-5.419921875,-62.255859375
35.60583233833313,1680680809.7419026,0.1044921875,0.14013671875,-0.890625,-16.7999267578125,-3.9215087890625,19.134521484375,5.56640625,-8.49609375,-80.56640625
35.65583300590515,1680680809.7919033,-0.1279296875,0.0947265625,-1.07275390625,-5.7525634765625,9.48333740234375,11.9476318359375,4.98046875,12.01171875,-80.2734375
35.705833196640015,1680680809.8419034,0.311767578125,0.69921875,-1.63623046875,-25.81787109375,-19.37103271484375,13.0462646484375,6.005859375,8.935546875,-57.861328125
35.7558331489563,1680680809.8919034,0.110107421875,-0.415771484375,-1.331298828125,4.2877197265625,-10.1470947265625,14.556884765625,7.177734375,-2.783203125,-50.830078125
